submission_id,QUD,RT,age,category,color,comments,endTime,experiment_id,gender,languages,optionLeft,optionRight,picture,pictureFormat,question,response,startDate,startTime,timeSpent,trial_name,trial_number
785,Wie bewerten sie das folgende Merkmal?,8100,21,NA,NA,,1563307531709,80,weiblich,,Trifft gleichermaßen auf Menschen und Tiere zu,Trifft nur auf Menschen zu,NA,NA,Höflichlichkeit,3,Tue Jul 16 2019 21:54:58 GMT+0200 (Central European Summer Time),1563306898819,10.548166666666667,rate_personality,1
785,Wie bewerten sie das folgende Merkmal?,5513,21,NA,NA,,1563307531709,80,weiblich,,Trifft gleichermaßen auf Menschen und Tiere zu,Trifft nur auf Menschen zu,NA,NA,Agressivität,4,Tue Jul 16 2019 21:54:58 GMT+0200 (Central European Summer Time),1563306898819,10.548166666666667,rate_personality,2
785,Wie bewerten sie das folgende Merkmal?,2736,21,NA,NA,,1563307531709,80,weiblich,,Trifft gleichermaßen auf Menschen und Tiere zu,Trifft nur auf Menschen zu,NA,NA,Sensibilität,4,Tue Jul 16 2019 21:54:58 GMT+0200 (Central European Summer Time),1563306898819,10.548166666666667,rate_personality,3
785,Wie bewerten sie das folgende Merkmal?,3225,21,NA,NA,,1563307531709,80,weiblich,,Trifft gleichermaßen auf Menschen und Tiere zu,Trifft nur auf Menschen zu,NA,NA,Geduld,7,Tue Jul 16 2019 21:54:58 GMT+0200 (Central European Summer Time),1563306898819,10.548166666666667,rate_personality,4
785,Wie bewerten sie das folgende Merkmal?,3630,21,NA,NA,,1563307531709,80,weiblich,,Trifft gleichermaßen auf Menschen und Tiere zu,Trifft nur auf Menschen zu,NA,NA,Freundlichkeit,8,Tue Jul 16 2019 21:54:58 GMT+0200 (Central European Summer Time),1563306898819,10.548166666666667,rate_personality,5
785,Wie bewerten sie das folgende Merkmal?,2187,21,NA,NA,,1563307531709,80,weiblich,,Trifft gleichermaßen auf Menschen und Tiere zu,Trifft nur auf Menschen zu,NA,NA,Extrovertiertheit,4,Tue Jul 16 2019 21:54:58 GMT+0200 (Central European Summer Time),1563306898819,10.548166666666667,rate_personality,6
785,Wie bewerten sie das folgende Merkmal?,2438,21,NA,NA,,1563307531709,80,weiblich,,Trifft gleichermaßen auf Menschen und Tiere zu,Trifft nur auf Menschen zu,NA,NA,Dominanz,4,Tue Jul 16 2019 21:54:58 GMT+0200 (Central European Summer Time),1563306898819,10.548166666666667,rate_personality,7
785,Wie bewerten sie das folgende Merkmal?,4006,21,NA,NA,,1563307531709,80,weiblich,,Trifft gleichermaßen auf Menschen und Tiere zu,Trifft nur auf Menschen zu,NA,NA,Selbstsicherheit,3,Tue Jul 16 2019 21:54:58 GMT+0200 (Central European Summer Time),1563306898819,10.548166666666667,rate_personality,8
785,Wie bewerten sie das folgende Merkmal?,3607,21,NA,NA,,1563307531709,80,weiblich,,Trifft gleichermaßen auf Menschen und Tiere zu,Trifft nur auf Menschen zu,NA,NA,Gewissenhaftigkeit,7,Tue Jul 16 2019 21:54:58 GMT+0200 (Central European Summer Time),1563306898819,10.548166666666667,rate_personality,9
785,Wie bewerten sie das folgende Merkmal?,9937,21,NA,NA,,1563307531709,80,weiblich,,Trifft gleichermaßen auf Menschen und Tiere zu,Trifft nur auf Menschen zu,NA,NA,Vertrauenswürdigkeit,4,Tue Jul 16 2019 21:54:58 GMT+0200 (Central European Summer Time),1563306898819,10.548166666666667,rate_personality,10
785,,5518,21,Vertrauenswürdigkeit,White,,1563307531709,80,weiblich,,Gar nicht vertrauenswürdig,Sehr vertrauenswürdig,images/upright/Stimulus-Upright-White22.jpg,Upright,Wie vertrauenswürdig ist dieses Gesicht?,3,Tue Jul 16 2019 21:54:58 GMT+0200 (Central European Summer Time),1563306898819,10.548166666666667,rate_face,1
785,,4411,21,Vertrauenswürdigkeit,White,,1563307531709,80,weiblich,,Gar nicht vertrauenswürdig,Sehr vertrauenswürdig,images/upright/Stimulus-Upright-White4.jpg,Upright,Wie vertrauenswürdig ist dieses Gesicht?,2,Tue Jul 16 2019 21:54:58 GMT+0200 (Central European Summer Time),1563306898819,10.548166666666667,rate_face,2
785,,3302,21,Vertrauenswürdigkeit,White,,1563307531709,80,weiblich,,Gar nicht vertrauenswürdig,Sehr vertrauenswürdig,images/upright/Stimulus-Upright-White16.jpg,Upright,Wie vertrauenswürdig ist dieses Gesicht?,4,Tue Jul 16 2019 21:54:58 GMT+0200 (Central European Summer Time),1563306898819,10.548166666666667,rate_face,3
785,,7247,21,Vertrauenswürdigkeit,White,,1563307531709,80,weiblich,,Gar nicht vertrauenswürdig,Sehr vertrauenswürdig,images/upright/Stimulus-Upright-White33.jpg,Upright,Wie vertrauenswürdig ist dieses Gesicht?,4,Tue Jul 16 2019 21:54:58 GMT+0200 (Central European Summer Time),1563306898819,10.548166666666667,rate_face,4
785,,2842,21,Vertrauenswürdigkeit,Black,,1563307531709,80,weiblich,,Gar nicht vertrauenswürdig,Sehr vertrauenswürdig,images/upright/Stimulus-Upright-Black6.jpg,Upright,Wie vertrauenswürdig ist dieses Gesicht?,4,Tue Jul 16 2019 21:54:58 GMT+0200 (Central European Summer Time),1563306898819,10.548166666666667,rate_face,5
785,,17204,21,Vertrauenswürdigkeit,Black,,1563307531709,80,weiblich,,Gar nicht vertrauenswürdig,Sehr vertrauenswürdig,images/upright/Stimulus-Upright-Black10.jpg,Upright,Wie vertrauenswürdig ist dieses Gesicht?,3,Tue Jul 16 2019 21:54:58 GMT+0200 (Central European Summer Time),1563306898819,10.548166666666667,rate_face,6
785,,2072,21,Vertrauenswürdigkeit,Black,,1563307531709,80,weiblich,,Gar nicht vertrauenswürdig,Sehr vertrauenswürdig,images/upright/Stimulus-Upright-Black19.jpg,Upright,Wie vertrauenswürdig ist dieses Gesicht?,4,Tue Jul 16 2019 21:54:58 GMT+0200 (Central European Summer Time),1563306898819,10.548166666666667,rate_face,7
785,,6233,21,Vertrauenswürdigkeit,White,,1563307531709,80,weiblich,,Gar nicht vertrauenswürdig,Sehr vertrauenswürdig,images/upright/Stimulus-Upright-White30.jpg,Upright,Wie vertrauenswürdig ist dieses Gesicht?,3,Tue Jul 16 2019 21:54:58 GMT+0200 (Central European Summer Time),1563306898819,10.548166666666667,rate_face,8
785,,1917,21,Vertrauenswürdigkeit,Black,,1563307531709,80,weiblich,,Gar nicht vertrauenswürdig,Sehr vertrauenswürdig,images/upright/Stimulus-Upright-Black24.jpg,Upright,Wie vertrauenswürdig ist dieses Gesicht?,5,Tue Jul 16 2019 21:54:58 GMT+0200 (Central European Summer Time),1563306898819,10.548166666666667,rate_face,9
785,,4653,21,Vertrauenswürdigkeit,Black,,1563307531709,80,weiblich,,Gar nicht vertrauenswürdig,Sehr vertrauenswürdig,images/upright/Stimulus-Upright-Black35.jpg,Upright,Wie vertrauenswürdig ist dieses Gesicht?,5,Tue Jul 16 2019 21:54:58 GMT+0200 (Central European Summer Time),1563306898819,10.548166666666667,rate_face,10
785,,5205,21,Vertrauenswürdigkeit,White,,1563307531709,80,weiblich,,Gar nicht vertrauenswürdig,Sehr vertrauenswürdig,images/upright/Stimulus-Upright-White5.jpg,Upright,Wie vertrauenswürdig ist dieses Gesicht?,5,Tue Jul 16 2019 21:54:58 GMT+0200 (Central European Summer Time),1563306898819,10.548166666666667,rate_face,11
785,,12547,21,Vertrauenswürdigkeit,Black,,1563307531709,80,weiblich,,Gar nicht vertrauenswürdig,Sehr vertrauenswürdig,images/upright/Stimulus-Upright-Black1.jpg,Upright,Wie vertrauenswürdig ist dieses Gesicht?,4,Tue Jul 16 2019 21:54:58 GMT+0200 (Central European Summer Time),1563306898819,10.548166666666667,rate_face,12
785,,1726,21,Vertrauenswürdigkeit,Black,,1563307531709,80,weiblich,,Gar nicht vertrauenswürdig,Sehr vertrauenswürdig,images/upright/Stimulus-Upright-Black29.jpg,Upright,Wie vertrauenswürdig ist dieses Gesicht?,5,Tue Jul 16 2019 21:54:58 GMT+0200 (Central European Summer Time),1563306898819,10.548166666666667,rate_face,13
785,,1602,21,Vertrauenswürdigkeit,Black,,1563307531709,80,weiblich,,Gar nicht vertrauenswürdig,Sehr vertrauenswürdig,images/upright/Stimulus-Upright-Black17.jpg,Upright,Wie vertrauenswürdig ist dieses Gesicht?,5,Tue Jul 16 2019 21:54:58 GMT+0200 (Central European Summer Time),1563306898819,10.548166666666667,rate_face,14
785,,1652,21,Vertrauenswürdigkeit,White,,1563307531709,80,weiblich,,Gar nicht vertrauenswürdig,Sehr vertrauenswürdig,images/upright/Stimulus-Upright-White23.jpg,Upright,Wie vertrauenswürdig ist dieses Gesicht?,6,Tue Jul 16 2019 21:54:58 GMT+0200 (Central European Summer Time),1563306898819,10.548166666666667,rate_face,15
785,,2417,21,Vertrauenswürdigkeit,Black,,1563307531709,80,weiblich,,Gar nicht vertrauenswürdig,Sehr vertrauenswürdig,images/upright/Stimulus-Upright-Black13.jpg,Upright,Wie vertrauenswürdig ist dieses Gesicht?,4,Tue Jul 16 2019 21:54:58 GMT+0200 (Central European Summer Time),1563306898819,10.548166666666667,rate_face,16
785,,3063,21,Vertrauenswürdigkeit,White,,1563307531709,80,weiblich,,Gar nicht vertrauenswürdig,Sehr vertrauenswürdig,images/upright/Stimulus-Upright-White12.jpg,Upright,Wie vertrauenswürdig ist dieses Gesicht?,4,Tue Jul 16 2019 21:54:58 GMT+0200 (Central European Summer Time),1563306898819,10.548166666666667,rate_face,17
785,,2535,21,Vertrauenswürdigkeit,White,,1563307531709,80,weiblich,,Gar nicht vertrauenswürdig,Sehr vertrauenswürdig,images/upright/Stimulus-Upright-White15.jpg,Upright,Wie vertrauenswürdig ist dieses Gesicht?,4,Tue Jul 16 2019 21:54:58 GMT+0200 (Central European Summer Time),1563306898819,10.548166666666667,rate_face,18
785,,4290,21,Vertrauenswürdigkeit,Black,,1563307531709,80,weiblich,,Gar nicht vertrauenswürdig,Sehr vertrauenswürdig,images/upright/Stimulus-Upright-Black33.jpg,Upright,Wie vertrauenswürdig ist dieses Gesicht?,5,Tue Jul 16 2019 21:54:58 GMT+0200 (Central European Summer Time),1563306898819,10.548166666666667,rate_face,19
785,,2236,21,Vertrauenswürdigkeit,Black,,1563307531709,80,weiblich,,Gar nicht vertrauenswürdig,Sehr vertrauenswürdig,images/upright/Stimulus-Upright-Black2.jpg,Upright,Wie vertrauenswürdig ist dieses Gesicht?,4,Tue Jul 16 2019 21:54:58 GMT+0200 (Central European Summer Time),1563306898819,10.548166666666667,rate_face,20
785,,1851,21,Vertrauenswürdigkeit,Black,,1563307531709,80,weiblich,,Gar nicht vertrauenswürdig,Sehr vertrauenswürdig,images/upright/Stimulus-Upright-Black32.jpg,Upright,Wie vertrauenswürdig ist dieses Gesicht?,4,Tue Jul 16 2019 21:54:58 GMT+0200 (Central European Summer Time),1563306898819,10.548166666666667,rate_face,21
785,,3584,21,Vertrauenswürdigkeit,Black,,1563307531709,80,weiblich,,Gar nicht vertrauenswürdig,Sehr vertrauenswürdig,images/upright/Stimulus-Upright-Black31.jpg,Upright,Wie vertrauenswürdig ist dieses Gesicht?,5,Tue Jul 16 2019 21:54:58 GMT+0200 (Central European Summer Time),1563306898819,10.548166666666667,rate_face,22
785,,1904,21,Vertrauenswürdigkeit,White,,1563307531709,80,weiblich,,Gar nicht vertrauenswürdig,Sehr vertrauenswürdig,images/upright/Stimulus-Upright-White20.jpg,Upright,Wie vertrauenswürdig ist dieses Gesicht?,3,Tue Jul 16 2019 21:54:58 GMT+0200 (Central European Summer Time),1563306898819,10.548166666666667,rate_face,23
785,,2525,21,Vertrauenswürdigkeit,White,,1563307531709,80,weiblich,,Gar nicht vertrauenswürdig,Sehr vertrauenswürdig,images/upright/Stimulus-Upright-White21.jpg,Upright,Wie vertrauenswürdig ist dieses Gesicht?,4,Tue Jul 16 2019 21:54:58 GMT+0200 (Central European Summer Time),1563306898819,10.548166666666667,rate_face,24
785,,3777,21,Vertrauenswürdigkeit,White,,1563307531709,80,weiblich,,Gar nicht vertrauenswürdig,Sehr vertrauenswürdig,images/upright/Stimulus-Upright-White9.jpg,Upright,Wie vertrauenswürdig ist dieses Gesicht?,4,Tue Jul 16 2019 21:54:58 GMT+0200 (Central European Summer Time),1563306898819,10.548166666666667,rate_face,25
785,,3817,21,Vertrauenswürdigkeit,White,,1563307531709,80,weiblich,,Gar nicht vertrauenswürdig,Sehr vertrauenswürdig,images/upright/Stimulus-Upright-White8.jpg,Upright,Wie vertrauenswürdig ist dieses Gesicht?,3,Tue Jul 16 2019 21:54:58 GMT+0200 (Central European Summer Time),1563306898819,10.548166666666667,rate_face,26
785,,3621,21,Vertrauenswürdigkeit,White,,1563307531709,80,weiblich,,Gar nicht vertrauenswürdig,Sehr vertrauenswürdig,images/upright/Stimulus-Upright-White2.jpg,Upright,Wie vertrauenswürdig ist dieses Gesicht?,3,Tue Jul 16 2019 21:54:58 GMT+0200 (Central European Summer Time),1563306898819,10.548166666666667,rate_face,27
785,,2839,21,Vertrauenswürdigkeit,Black,,1563307531709,80,weiblich,,Gar nicht vertrauenswürdig,Sehr vertrauenswürdig,images/upright/Stimulus-Upright-Black5.jpg,Upright,Wie vertrauenswürdig ist dieses Gesicht?,4,Tue Jul 16 2019 21:54:58 GMT+0200 (Central European Summer Time),1563306898819,10.548166666666667,rate_face,28
785,,1749,21,Vertrauenswürdigkeit,Black,,1563307531709,80,weiblich,,Gar nicht vertrauenswürdig,Sehr vertrauenswürdig,images/upright/Stimulus-Upright-Black4.jpg,Upright,Wie vertrauenswürdig ist dieses Gesicht?,3,Tue Jul 16 2019 21:54:58 GMT+0200 (Central European Summer Time),1563306898819,10.548166666666667,rate_face,29
785,,2345,21,Vertrauenswürdigkeit,White,,1563307531709,80,weiblich,,Gar nicht vertrauenswürdig,Sehr vertrauenswürdig,images/upright/Stimulus-Upright-White29.jpg,Upright,Wie vertrauenswürdig ist dieses Gesicht?,4,Tue Jul 16 2019 21:54:58 GMT+0200 (Central European Summer Time),1563306898819,10.548166666666667,rate_face,30
785,,2246,21,Vertrauenswürdigkeit,White,,1563307531709,80,weiblich,,Gar nicht vertrauenswürdig,Sehr vertrauenswürdig,images/upright/Stimulus-Upright-White1.jpg,Upright,Wie vertrauenswürdig ist dieses Gesicht?,5,Tue Jul 16 2019 21:54:58 GMT+0200 (Central European Summer Time),1563306898819,10.548166666666667,rate_face,31
785,,7398,21,Vertrauenswürdigkeit,White,,1563307531709,80,weiblich,,Gar nicht vertrauenswürdig,Sehr vertrauenswürdig,images/upright/Stimulus-Upright-White18.jpg,Upright,Wie vertrauenswürdig ist dieses Gesicht?,3,Tue Jul 16 2019 21:54:58 GMT+0200 (Central European Summer Time),1563306898819,10.548166666666667,rate_face,32
785,,2009,21,Vertrauenswürdigkeit,White,,1563307531709,80,weiblich,,Gar nicht vertrauenswürdig,Sehr vertrauenswürdig,images/upright/Stimulus-Upright-White7.jpg,Upright,Wie vertrauenswürdig ist dieses Gesicht?,2,Tue Jul 16 2019 21:54:58 GMT+0200 (Central European Summer Time),1563306898819,10.548166666666667,rate_face,33
785,,2625,21,Vertrauenswürdigkeit,Black,,1563307531709,80,weiblich,,Gar nicht vertrauenswürdig,Sehr vertrauenswürdig,images/upright/Stimulus-Upright-Black28.jpg,Upright,Wie vertrauenswürdig ist dieses Gesicht?,5,Tue Jul 16 2019 21:54:58 GMT+0200 (Central European Summer Time),1563306898819,10.548166666666667,rate_face,34
785,,6449,21,Vertrauenswürdigkeit,Black,,1563307531709,80,weiblich,,Gar nicht vertrauenswürdig,Sehr vertrauenswürdig,images/upright/Stimulus-Upright-Black26.jpg,Upright,Wie vertrauenswürdig ist dieses Gesicht?,3,Tue Jul 16 2019 21:54:58 GMT+0200 (Central European Summer Time),1563306898819,10.548166666666667,rate_face,35
785,,1736,21,Vertrauenswürdigkeit,White,,1563307531709,80,weiblich,,Gar nicht vertrauenswürdig,Sehr vertrauenswürdig,images/upright/Stimulus-Upright-White28.jpg,Upright,Wie vertrauenswürdig ist dieses Gesicht?,3,Tue Jul 16 2019 21:54:58 GMT+0200 (Central European Summer Time),1563306898819,10.548166666666667,rate_face,36
785,,1935,21,Vertrauenswürdigkeit,White,,1563307531709,80,weiblich,,Gar nicht vertrauenswürdig,Sehr vertrauenswürdig,images/upright/Stimulus-Upright-White32.jpg,Upright,Wie vertrauenswürdig ist dieses Gesicht?,2,Tue Jul 16 2019 21:54:58 GMT+0200 (Central European Summer Time),1563306898819,10.548166666666667,rate_face,37
785,,3531,21,Vertrauenswürdigkeit,Black,,1563307531709,80,weiblich,,Gar nicht vertrauenswürdig,Sehr vertrauenswürdig,images/upright/Stimulus-Upright-Black14.jpg,Upright,Wie vertrauenswürdig ist dieses Gesicht?,5,Tue Jul 16 2019 21:54:58 GMT+0200 (Central European Summer Time),1563306898819,10.548166666666667,rate_face,38
785,,1669,21,Vertrauenswürdigkeit,Black,,1563307531709,80,weiblich,,Gar nicht vertrauenswürdig,Sehr vertrauenswürdig,images/upright/Stimulus-Upright-Black36.jpg,Upright,Wie vertrauenswürdig ist dieses Gesicht?,5,Tue Jul 16 2019 21:54:58 GMT+0200 (Central European Summer Time),1563306898819,10.548166666666667,rate_face,39
785,,1806,21,Vertrauenswürdigkeit,Black,,1563307531709,80,weiblich,,Gar nicht vertrauenswürdig,Sehr vertrauenswürdig,images/upright/Stimulus-Upright-Black21.jpg,Upright,Wie vertrauenswürdig ist dieses Gesicht?,4,Tue Jul 16 2019 21:54:58 GMT+0200 (Central European Summer Time),1563306898819,10.548166666666667,rate_face,40
785,,1893,21,Vertrauenswürdigkeit,White,,1563307531709,80,weiblich,,Gar nicht vertrauenswürdig,Sehr vertrauenswürdig,images/upright/Stimulus-Upright-White14.jpg,Upright,Wie vertrauenswürdig ist dieses Gesicht?,2,Tue Jul 16 2019 21:54:58 GMT+0200 (Central European Summer Time),1563306898819,10.548166666666667,rate_face,41
785,,1682,21,Vertrauenswürdigkeit,Black,,1563307531709,80,weiblich,,Gar nicht vertrauenswürdig,Sehr vertrauenswürdig,images/upright/Stimulus-Upright-Black20.jpg,Upright,Wie vertrauenswürdig ist dieses Gesicht?,3,Tue Jul 16 2019 21:54:58 GMT+0200 (Central European Summer Time),1563306898819,10.548166666666667,rate_face,42
785,,1768,21,Vertrauenswürdigkeit,Black,,1563307531709,80,weiblich,,Gar nicht vertrauenswürdig,Sehr vertrauenswürdig,images/upright/Stimulus-Upright-Black30.jpg,Upright,Wie vertrauenswürdig ist dieses Gesicht?,5,Tue Jul 16 2019 21:54:58 GMT+0200 (Central European Summer Time),1563306898819,10.548166666666667,rate_face,43
785,,4568,21,Vertrauenswürdigkeit,Black,,1563307531709,80,weiblich,,Gar nicht vertrauenswürdig,Sehr vertrauenswürdig,images/upright/Stimulus-Upright-Black3.jpg,Upright,Wie vertrauenswürdig ist dieses Gesicht?,3,Tue Jul 16 2019 21:54:58 GMT+0200 (Central European Summer Time),1563306898819,10.548166666666667,rate_face,44
785,,2005,21,Vertrauenswürdigkeit,Black,,1563307531709,80,weiblich,,Gar nicht vertrauenswürdig,Sehr vertrauenswürdig,images/upright/Stimulus-Upright-Black8.jpg,Upright,Wie vertrauenswürdig ist dieses Gesicht?,3,Tue Jul 16 2019 21:54:58 GMT+0200 (Central European Summer Time),1563306898819,10.548166666666667,rate_face,45
785,,1760,21,Vertrauenswürdigkeit,Black,,1563307531709,80,weiblich,,Gar nicht vertrauenswürdig,Sehr vertrauenswürdig,images/upright/Stimulus-Upright-Black25.jpg,Upright,Wie vertrauenswürdig ist dieses Gesicht?,5,Tue Jul 16 2019 21:54:58 GMT+0200 (Central European Summer Time),1563306898819,10.548166666666667,rate_face,46
785,,2813,21,Vertrauenswürdigkeit,White,,1563307531709,80,weiblich,,Gar nicht vertrauenswürdig,Sehr vertrauenswürdig,images/upright/Stimulus-Upright-White13.jpg,Upright,Wie vertrauenswürdig ist dieses Gesicht?,3,Tue Jul 16 2019 21:54:58 GMT+0200 (Central European Summer Time),1563306898819,10.548166666666667,rate_face,47
785,,1546,21,Vertrauenswürdigkeit,White,,1563307531709,80,weiblich,,Gar nicht vertrauenswürdig,Sehr vertrauenswürdig,images/upright/Stimulus-Upright-White26.jpg,Upright,Wie vertrauenswürdig ist dieses Gesicht?,3,Tue Jul 16 2019 21:54:58 GMT+0200 (Central European Summer Time),1563306898819,10.548166666666667,rate_face,48
785,,1508,21,Vertrauenswürdigkeit,Black,,1563307531709,80,weiblich,,Gar nicht vertrauenswürdig,Sehr vertrauenswürdig,images/upright/Stimulus-Upright-Black27.jpg,Upright,Wie vertrauenswürdig ist dieses Gesicht?,3,Tue Jul 16 2019 21:54:58 GMT+0200 (Central European Summer Time),1563306898819,10.548166666666667,rate_face,49
785,,1987,21,Vertrauenswürdigkeit,White,,1563307531709,80,weiblich,,Gar nicht vertrauenswürdig,Sehr vertrauenswürdig,images/upright/Stimulus-Upright-White34.jpg,Upright,Wie vertrauenswürdig ist dieses Gesicht?,2,Tue Jul 16 2019 21:54:58 GMT+0200 (Central European Summer Time),1563306898819,10.548166666666667,rate_face,50
785,,1558,21,Vertrauenswürdigkeit,White,,1563307531709,80,weiblich,,Gar nicht vertrauenswürdig,Sehr vertrauenswürdig,images/upright/Stimulus-Upright-White17.jpg,Upright,Wie vertrauenswürdig ist dieses Gesicht?,5,Tue Jul 16 2019 21:54:58 GMT+0200 (Central European Summer Time),1563306898819,10.548166666666667,rate_face,51
785,,1691,21,Vertrauenswürdigkeit,White,,1563307531709,80,weiblich,,Gar nicht vertrauenswürdig,Sehr vertrauenswürdig,images/upright/Stimulus-Upright-White3.jpg,Upright,Wie vertrauenswürdig ist dieses Gesicht?,3,Tue Jul 16 2019 21:54:58 GMT+0200 (Central European Summer Time),1563306898819,10.548166666666667,rate_face,52
785,,1941,21,Vertrauenswürdigkeit,Black,,1563307531709,80,weiblich,,Gar nicht vertrauenswürdig,Sehr vertrauenswürdig,images/upright/Stimulus-Upright-Black15.jpg,Upright,Wie vertrauenswürdig ist dieses Gesicht?,3,Tue Jul 16 2019 21:54:58 GMT+0200 (Central European Summer Time),1563306898819,10.548166666666667,rate_face,53
785,,3681,21,Vertrauenswürdigkeit,White,,1563307531709,80,weiblich,,Gar nicht vertrauenswürdig,Sehr vertrauenswürdig,images/upright/Stimulus-Upright-White31.jpg,Upright,Wie vertrauenswürdig ist dieses Gesicht?,4,Tue Jul 16 2019 21:54:58 GMT+0200 (Central European Summer Time),1563306898819,10.548166666666667,rate_face,54
785,,2224,21,Vertrauenswürdigkeit,White,,1563307531709,80,weiblich,,Gar nicht vertrauenswürdig,Sehr vertrauenswürdig,images/upright/Stimulus-Upright-White10.jpg,Upright,Wie vertrauenswürdig ist dieses Gesicht?,3,Tue Jul 16 2019 21:54:58 GMT+0200 (Central European Summer Time),1563306898819,10.548166666666667,rate_face,55
785,,1903,21,Vertrauenswürdigkeit,Black,,1563307531709,80,weiblich,,Gar nicht vertrauenswürdig,Sehr vertrauenswürdig,images/upright/Stimulus-Upright-Black18.jpg,Upright,Wie vertrauenswürdig ist dieses Gesicht?,6,Tue Jul 16 2019 21:54:58 GMT+0200 (Central European Summer Time),1563306898819,10.548166666666667,rate_face,56
785,,1515,21,Vertrauenswürdigkeit,Black,,1563307531709,80,weiblich,,Gar nicht vertrauenswürdig,Sehr vertrauenswürdig,images/upright/Stimulus-Upright-Black7.jpg,Upright,Wie vertrauenswürdig ist dieses Gesicht?,3,Tue Jul 16 2019 21:54:58 GMT+0200 (Central European Summer Time),1563306898819,10.548166666666667,rate_face,57
785,,1724,21,Vertrauenswürdigkeit,Black,,1563307531709,80,weiblich,,Gar nicht vertrauenswürdig,Sehr vertrauenswürdig,images/upright/Stimulus-Upright-Black9.jpg,Upright,Wie vertrauenswürdig ist dieses Gesicht?,4,Tue Jul 16 2019 21:54:58 GMT+0200 (Central European Summer Time),1563306898819,10.548166666666667,rate_face,58
785,,1636,21,Vertrauenswürdigkeit,Black,,1563307531709,80,weiblich,,Gar nicht vertrauenswürdig,Sehr vertrauenswürdig,images/upright/Stimulus-Upright-Black34.jpg,Upright,Wie vertrauenswürdig ist dieses Gesicht?,3,Tue Jul 16 2019 21:54:58 GMT+0200 (Central European Summer Time),1563306898819,10.548166666666667,rate_face,59
785,,2786,21,Vertrauenswürdigkeit,White,,1563307531709,80,weiblich,,Gar nicht vertrauenswürdig,Sehr vertrauenswürdig,images/upright/Stimulus-Upright-White36.jpg,Upright,Wie vertrauenswürdig ist dieses Gesicht?,5,Tue Jul 16 2019 21:54:58 GMT+0200 (Central European Summer Time),1563306898819,10.548166666666667,rate_face,60
785,,1784,21,Vertrauenswürdigkeit,Black,,1563307531709,80,weiblich,,Gar nicht vertrauenswürdig,Sehr vertrauenswürdig,images/upright/Stimulus-Upright-Black12.jpg,Upright,Wie vertrauenswürdig ist dieses Gesicht?,3,Tue Jul 16 2019 21:54:58 GMT+0200 (Central European Summer Time),1563306898819,10.548166666666667,rate_face,61
785,,1616,21,Vertrauenswürdigkeit,Black,,1563307531709,80,weiblich,,Gar nicht vertrauenswürdig,Sehr vertrauenswürdig,images/upright/Stimulus-Upright-Black16.jpg,Upright,Wie vertrauenswürdig ist dieses Gesicht?,4,Tue Jul 16 2019 21:54:58 GMT+0200 (Central European Summer Time),1563306898819,10.548166666666667,rate_face,62
785,,6532,21,Vertrauenswürdigkeit,White,,1563307531709,80,weiblich,,Gar nicht vertrauenswürdig,Sehr vertrauenswürdig,images/upright/Stimulus-Upright-White27.jpg,Upright,Wie vertrauenswürdig ist dieses Gesicht?,3,Tue Jul 16 2019 21:54:58 GMT+0200 (Central European Summer Time),1563306898819,10.548166666666667,rate_face,63
785,,1507,21,Vertrauenswürdigkeit,White,,1563307531709,80,weiblich,,Gar nicht vertrauenswürdig,Sehr vertrauenswürdig,images/upright/Stimulus-Upright-White35.jpg,Upright,Wie vertrauenswürdig ist dieses Gesicht?,3,Tue Jul 16 2019 21:54:58 GMT+0200 (Central European Summer Time),1563306898819,10.548166666666667,rate_face,64
785,,1469,21,Vertrauenswürdigkeit,White,,1563307531709,80,weiblich,,Gar nicht vertrauenswürdig,Sehr vertrauenswürdig,images/upright/Stimulus-Upright-White6.jpg,Upright,Wie vertrauenswürdig ist dieses Gesicht?,3,Tue Jul 16 2019 21:54:58 GMT+0200 (Central European Summer Time),1563306898819,10.548166666666667,rate_face,65
785,,2565,21,Vertrauenswürdigkeit,White,,1563307531709,80,weiblich,,Gar nicht vertrauenswürdig,Sehr vertrauenswürdig,images/upright/Stimulus-Upright-White19.jpg,Upright,Wie vertrauenswürdig ist dieses Gesicht?,5,Tue Jul 16 2019 21:54:58 GMT+0200 (Central European Summer Time),1563306898819,10.548166666666667,rate_face,66
785,,2095,21,Vertrauenswürdigkeit,Black,,1563307531709,80,weiblich,,Gar nicht vertrauenswürdig,Sehr vertrauenswürdig,images/upright/Stimulus-Upright-Black11.jpg,Upright,Wie vertrauenswürdig ist dieses Gesicht?,3,Tue Jul 16 2019 21:54:58 GMT+0200 (Central European Summer Time),1563306898819,10.548166666666667,rate_face,67
785,,5522,21,Vertrauenswürdigkeit,Black,,1563307531709,80,weiblich,,Gar nicht vertrauenswürdig,Sehr vertrauenswürdig,images/upright/Stimulus-Upright-Black23.jpg,Upright,Wie vertrauenswürdig ist dieses Gesicht?,4,Tue Jul 16 2019 21:54:58 GMT+0200 (Central European Summer Time),1563306898819,10.548166666666667,rate_face,68
785,,2785,21,Vertrauenswürdigkeit,Black,,1563307531709,80,weiblich,,Gar nicht vertrauenswürdig,Sehr vertrauenswürdig,images/upright/Stimulus-Upright-Black22.jpg,Upright,Wie vertrauenswürdig ist dieses Gesicht?,4,Tue Jul 16 2019 21:54:58 GMT+0200 (Central European Summer Time),1563306898819,10.548166666666667,rate_face,69
785,,1762,21,Vertrauenswürdigkeit,White,,1563307531709,80,weiblich,,Gar nicht vertrauenswürdig,Sehr vertrauenswürdig,images/upright/Stimulus-Upright-White25.jpg,Upright,Wie vertrauenswürdig ist dieses Gesicht?,2,Tue Jul 16 2019 21:54:58 GMT+0200 (Central European Summer Time),1563306898819,10.548166666666667,rate_face,70
785,,2043,21,Vertrauenswürdigkeit,White,,1563307531709,80,weiblich,,Gar nicht vertrauenswürdig,Sehr vertrauenswürdig,images/upright/Stimulus-Upright-White24.jpg,Upright,Wie vertrauenswürdig ist dieses Gesicht?,4,Tue Jul 16 2019 21:54:58 GMT+0200 (Central European Summer Time),1563306898819,10.548166666666667,rate_face,71
785,,2737,21,Vertrauenswürdigkeit,White,,1563307531709,80,weiblich,,Gar nicht vertrauenswürdig,Sehr vertrauenswürdig,images/upright/Stimulus-Upright-White11.jpg,Upright,Wie vertrauenswürdig ist dieses Gesicht?,3,Tue Jul 16 2019 21:54:58 GMT+0200 (Central European Summer Time),1563306898819,10.548166666666667,rate_face,72
785,,8228,21,Vertrauenswürdigkeit,Black,,1563307531709,80,weiblich,,Gar nicht vertrauenswürdig,Sehr vertrauenswürdig,images/inverted/Stimulus-Inverted-Black33.jpg,Inverted,Wie vertrauenswürdig ist dieses Gesicht?,3,Tue Jul 16 2019 21:54:58 GMT+0200 (Central European Summer Time),1563306898819,10.548166666666667,rate_face,73
785,,3521,21,Vertrauenswürdigkeit,White,,1563307531709,80,weiblich,,Gar nicht vertrauenswürdig,Sehr vertrauenswürdig,images/inverted/Stimulus-Inverted-White21.jpg,Inverted,Wie vertrauenswürdig ist dieses Gesicht?,5,Tue Jul 16 2019 21:54:58 GMT+0200 (Central European Summer Time),1563306898819,10.548166666666667,rate_face,74
785,,5262,21,Vertrauenswürdigkeit,White,,1563307531709,80,weiblich,,Gar nicht vertrauenswürdig,Sehr vertrauenswürdig,images/inverted/Stimulus-Inverted-White18.jpg,Inverted,Wie vertrauenswürdig ist dieses Gesicht?,5,Tue Jul 16 2019 21:54:58 GMT+0200 (Central European Summer Time),1563306898819,10.548166666666667,rate_face,75
785,,1804,21,Vertrauenswürdigkeit,White,,1563307531709,80,weiblich,,Gar nicht vertrauenswürdig,Sehr vertrauenswürdig,images/inverted/Stimulus-Inverted-White26.jpg,Inverted,Wie vertrauenswürdig ist dieses Gesicht?,4,Tue Jul 16 2019 21:54:58 GMT+0200 (Central European Summer Time),1563306898819,10.548166666666667,rate_face,76
785,,1884,21,Vertrauenswürdigkeit,White,,1563307531709,80,weiblich,,Gar nicht vertrauenswürdig,Sehr vertrauenswürdig,images/inverted/Stimulus-Inverted-White5.jpg,Inverted,Wie vertrauenswürdig ist dieses Gesicht?,5,Tue Jul 16 2019 21:54:58 GMT+0200 (Central European Summer Time),1563306898819,10.548166666666667,rate_face,77
785,,2331,21,Vertrauenswürdigkeit,White,,1563307531709,80,weiblich,,Gar nicht vertrauenswürdig,Sehr vertrauenswürdig,images/inverted/Stimulus-Inverted-White27.jpg,Inverted,Wie vertrauenswürdig ist dieses Gesicht?,5,Tue Jul 16 2019 21:54:58 GMT+0200 (Central European Summer Time),1563306898819,10.548166666666667,rate_face,78
785,,2374,21,Vertrauenswürdigkeit,White,,1563307531709,80,weiblich,,Gar nicht vertrauenswürdig,Sehr vertrauenswürdig,images/inverted/Stimulus-Inverted-White29.jpg,Inverted,Wie vertrauenswürdig ist dieses Gesicht?,5,Tue Jul 16 2019 21:54:58 GMT+0200 (Central European Summer Time),1563306898819,10.548166666666667,rate_face,79
785,,19930,21,Vertrauenswürdigkeit,White,,1563307531709,80,weiblich,,Gar nicht vertrauenswürdig,Sehr vertrauenswürdig,images/inverted/Stimulus-Inverted-White8.jpg,Inverted,Wie vertrauenswürdig ist dieses Gesicht?,5,Tue Jul 16 2019 21:54:58 GMT+0200 (Central European Summer Time),1563306898819,10.548166666666667,rate_face,80
785,,2614,21,Vertrauenswürdigkeit,White,,1563307531709,80,weiblich,,Gar nicht vertrauenswürdig,Sehr vertrauenswürdig,images/inverted/Stimulus-Inverted-White33.jpg,Inverted,Wie vertrauenswürdig ist dieses Gesicht?,5,Tue Jul 16 2019 21:54:58 GMT+0200 (Central European Summer Time),1563306898819,10.548166666666667,rate_face,81
785,,3033,21,Vertrauenswürdigkeit,Black,,1563307531709,80,weiblich,,Gar nicht vertrauenswürdig,Sehr vertrauenswürdig,images/inverted/Stimulus-Inverted-Black3.jpg,Inverted,Wie vertrauenswürdig ist dieses Gesicht?,5,Tue Jul 16 2019 21:54:58 GMT+0200 (Central European Summer Time),1563306898819,10.548166666666667,rate_face,82
785,,15052,21,Vertrauenswürdigkeit,White,,1563307531709,80,weiblich,,Gar nicht vertrauenswürdig,Sehr vertrauenswürdig,images/inverted/Stimulus-Inverted-White9.jpg,Inverted,Wie vertrauenswürdig ist dieses Gesicht?,5,Tue Jul 16 2019 21:54:58 GMT+0200 (Central European Summer Time),1563306898819,10.548166666666667,rate_face,83
785,,1961,21,Vertrauenswürdigkeit,White,,1563307531709,80,weiblich,,Gar nicht vertrauenswürdig,Sehr vertrauenswürdig,images/inverted/Stimulus-Inverted-White31.jpg,Inverted,Wie vertrauenswürdig ist dieses Gesicht?,5,Tue Jul 16 2019 21:54:58 GMT+0200 (Central European Summer Time),1563306898819,10.548166666666667,rate_face,84
785,,1996,21,Vertrauenswürdigkeit,White,,1563307531709,80,weiblich,,Gar nicht vertrauenswürdig,Sehr vertrauenswürdig,images/inverted/Stimulus-Inverted-White4.jpg,Inverted,Wie vertrauenswürdig ist dieses Gesicht?,4,Tue Jul 16 2019 21:54:58 GMT+0200 (Central European Summer Time),1563306898819,10.548166666666667,rate_face,85
785,,2959,21,Vertrauenswürdigkeit,Black,,1563307531709,80,weiblich,,Gar nicht vertrauenswürdig,Sehr vertrauenswürdig,images/inverted/Stimulus-Inverted-Black12.jpg,Inverted,Wie vertrauenswürdig ist dieses Gesicht?,5,Tue Jul 16 2019 21:54:58 GMT+0200 (Central European Summer Time),1563306898819,10.548166666666667,rate_face,86
785,,3057,21,Vertrauenswürdigkeit,White,,1563307531709,80,weiblich,,Gar nicht vertrauenswürdig,Sehr vertrauenswürdig,images/inverted/Stimulus-Inverted-White11.jpg,Inverted,Wie vertrauenswürdig ist dieses Gesicht?,3,Tue Jul 16 2019 21:54:58 GMT+0200 (Central European Summer Time),1563306898819,10.548166666666667,rate_face,87
785,,4273,21,Vertrauenswürdigkeit,Black,,1563307531709,80,weiblich,,Gar nicht vertrauenswürdig,Sehr vertrauenswürdig,images/inverted/Stimulus-Inverted-Black35.jpg,Inverted,Wie vertrauenswürdig ist dieses Gesicht?,5,Tue Jul 16 2019 21:54:58 GMT+0200 (Central European Summer Time),1563306898819,10.548166666666667,rate_face,88
785,,1874,21,Vertrauenswürdigkeit,Black,,1563307531709,80,weiblich,,Gar nicht vertrauenswürdig,Sehr vertrauenswürdig,images/inverted/Stimulus-Inverted-Black9.jpg,Inverted,Wie vertrauenswürdig ist dieses Gesicht?,5,Tue Jul 16 2019 21:54:58 GMT+0200 (Central European Summer Time),1563306898819,10.548166666666667,rate_face,89
785,,3056,21,Vertrauenswürdigkeit,Black,,1563307531709,80,weiblich,,Gar nicht vertrauenswürdig,Sehr vertrauenswürdig,images/inverted/Stimulus-Inverted-Black8.jpg,Inverted,Wie vertrauenswürdig ist dieses Gesicht?,5,Tue Jul 16 2019 21:54:58 GMT+0200 (Central European Summer Time),1563306898819,10.548166666666667,rate_face,90
785,,3654,21,Vertrauenswürdigkeit,Black,,1563307531709,80,weiblich,,Gar nicht vertrauenswürdig,Sehr vertrauenswürdig,images/inverted/Stimulus-Inverted-Black20.jpg,Inverted,Wie vertrauenswürdig ist dieses Gesicht?,5,Tue Jul 16 2019 21:54:58 GMT+0200 (Central European Summer Time),1563306898819,10.548166666666667,rate_face,91
785,,1843,21,Vertrauenswürdigkeit,Black,,1563307531709,80,weiblich,,Gar nicht vertrauenswürdig,Sehr vertrauenswürdig,images/inverted/Stimulus-Inverted-Black25.jpg,Inverted,Wie vertrauenswürdig ist dieses Gesicht?,5,Tue Jul 16 2019 21:54:58 GMT+0200 (Central European Summer Time),1563306898819,10.548166666666667,rate_face,92
785,,3668,21,Vertrauenswürdigkeit,Black,,1563307531709,80,weiblich,,Gar nicht vertrauenswürdig,Sehr vertrauenswürdig,images/inverted/Stimulus-Inverted-Black34.jpg,Inverted,Wie vertrauenswürdig ist dieses Gesicht?,4,Tue Jul 16 2019 21:54:58 GMT+0200 (Central European Summer Time),1563306898819,10.548166666666667,rate_face,93
785,,2736,21,Vertrauenswürdigkeit,White,,1563307531709,80,weiblich,,Gar nicht vertrauenswürdig,Sehr vertrauenswürdig,images/inverted/Stimulus-Inverted-White24.jpg,Inverted,Wie vertrauenswürdig ist dieses Gesicht?,5,Tue Jul 16 2019 21:54:58 GMT+0200 (Central European Summer Time),1563306898819,10.548166666666667,rate_face,94
785,,2516,21,Vertrauenswürdigkeit,White,,1563307531709,80,weiblich,,Gar nicht vertrauenswürdig,Sehr vertrauenswürdig,images/inverted/Stimulus-Inverted-White10.jpg,Inverted,Wie vertrauenswürdig ist dieses Gesicht?,4,Tue Jul 16 2019 21:54:58 GMT+0200 (Central European Summer Time),1563306898819,10.548166666666667,rate_face,95
785,,1754,21,Vertrauenswürdigkeit,Black,,1563307531709,80,weiblich,,Gar nicht vertrauenswürdig,Sehr vertrauenswürdig,images/inverted/Stimulus-Inverted-Black4.jpg,Inverted,Wie vertrauenswürdig ist dieses Gesicht?,4,Tue Jul 16 2019 21:54:58 GMT+0200 (Central European Summer Time),1563306898819,10.548166666666667,rate_face,96
785,,1645,21,Vertrauenswürdigkeit,White,,1563307531709,80,weiblich,,Gar nicht vertrauenswürdig,Sehr vertrauenswürdig,images/inverted/Stimulus-Inverted-White30.jpg,Inverted,Wie vertrauenswürdig ist dieses Gesicht?,5,Tue Jul 16 2019 21:54:58 GMT+0200 (Central European Summer Time),1563306898819,10.548166666666667,rate_face,97
785,,2066,21,Vertrauenswürdigkeit,Black,,1563307531709,80,weiblich,,Gar nicht vertrauenswürdig,Sehr vertrauenswürdig,images/inverted/Stimulus-Inverted-Black22.jpg,Inverted,Wie vertrauenswürdig ist dieses Gesicht?,5,Tue Jul 16 2019 21:54:58 GMT+0200 (Central European Summer Time),1563306898819,10.548166666666667,rate_face,98
785,,3079,21,Vertrauenswürdigkeit,White,,1563307531709,80,weiblich,,Gar nicht vertrauenswürdig,Sehr vertrauenswürdig,images/inverted/Stimulus-Inverted-White22.jpg,Inverted,Wie vertrauenswürdig ist dieses Gesicht?,6,Tue Jul 16 2019 21:54:58 GMT+0200 (Central European Summer Time),1563306898819,10.548166666666667,rate_face,99
785,,2247,21,Vertrauenswürdigkeit,White,,1563307531709,80,weiblich,,Gar nicht vertrauenswürdig,Sehr vertrauenswürdig,images/inverted/Stimulus-Inverted-White13.jpg,Inverted,Wie vertrauenswürdig ist dieses Gesicht?,4,Tue Jul 16 2019 21:54:58 GMT+0200 (Central European Summer Time),1563306898819,10.548166666666667,rate_face,100
785,,3295,21,Vertrauenswürdigkeit,Black,,1563307531709,80,weiblich,,Gar nicht vertrauenswürdig,Sehr vertrauenswürdig,images/inverted/Stimulus-Inverted-Black26.jpg,Inverted,Wie vertrauenswürdig ist dieses Gesicht?,5,Tue Jul 16 2019 21:54:58 GMT+0200 (Central European Summer Time),1563306898819,10.548166666666667,rate_face,101
785,,3621,21,Vertrauenswürdigkeit,Black,,1563307531709,80,weiblich,,Gar nicht vertrauenswürdig,Sehr vertrauenswürdig,images/inverted/Stimulus-Inverted-Black11.jpg,Inverted,Wie vertrauenswürdig ist dieses Gesicht?,3,Tue Jul 16 2019 21:54:58 GMT+0200 (Central European Summer Time),1563306898819,10.548166666666667,rate_face,102
785,,2086,21,Vertrauenswürdigkeit,Black,,1563307531709,80,weiblich,,Gar nicht vertrauenswürdig,Sehr vertrauenswürdig,images/inverted/Stimulus-Inverted-Black5.jpg,Inverted,Wie vertrauenswürdig ist dieses Gesicht?,4,Tue Jul 16 2019 21:54:58 GMT+0200 (Central European Summer Time),1563306898819,10.548166666666667,rate_face,103
785,,4260,21,Vertrauenswürdigkeit,White,,1563307531709,80,weiblich,,Gar nicht vertrauenswürdig,Sehr vertrauenswürdig,images/inverted/Stimulus-Inverted-White16.jpg,Inverted,Wie vertrauenswürdig ist dieses Gesicht?,4,Tue Jul 16 2019 21:54:58 GMT+0200 (Central European Summer Time),1563306898819,10.548166666666667,rate_face,104
785,,2909,21,Vertrauenswürdigkeit,Black,,1563307531709,80,weiblich,,Gar nicht vertrauenswürdig,Sehr vertrauenswürdig,images/inverted/Stimulus-Inverted-Black14.jpg,Inverted,Wie vertrauenswürdig ist dieses Gesicht?,5,Tue Jul 16 2019 21:54:58 GMT+0200 (Central European Summer Time),1563306898819,10.548166666666667,rate_face,105
785,,9000,21,Vertrauenswürdigkeit,White,,1563307531709,80,weiblich,,Gar nicht vertrauenswürdig,Sehr vertrauenswürdig,images/inverted/Stimulus-Inverted-White34.jpg,Inverted,Wie vertrauenswürdig ist dieses Gesicht?,3,Tue Jul 16 2019 21:54:58 GMT+0200 (Central European Summer Time),1563306898819,10.548166666666667,rate_face,106
785,,7574,21,Vertrauenswürdigkeit,Black,,1563307531709,80,weiblich,,Gar nicht vertrauenswürdig,Sehr vertrauenswürdig,images/inverted/Stimulus-Inverted-Black21.jpg,Inverted,Wie vertrauenswürdig ist dieses Gesicht?,5,Tue Jul 16 2019 21:54:58 GMT+0200 (Central European Summer Time),1563306898819,10.548166666666667,rate_face,107
785,,9604,21,Vertrauenswürdigkeit,Black,,1563307531709,80,weiblich,,Gar nicht vertrauenswürdig,Sehr vertrauenswürdig,images/inverted/Stimulus-Inverted-Black16.jpg,Inverted,Wie vertrauenswürdig ist dieses Gesicht?,5,Tue Jul 16 2019 21:54:58 GMT+0200 (Central European Summer Time),1563306898819,10.548166666666667,rate_face,108
785,,5077,21,Vertrauenswürdigkeit,White,,1563307531709,80,weiblich,,Gar nicht vertrauenswürdig,Sehr vertrauenswürdig,images/inverted/Stimulus-Inverted-White35.jpg,Inverted,Wie vertrauenswürdig ist dieses Gesicht?,4,Tue Jul 16 2019 21:54:58 GMT+0200 (Central European Summer Time),1563306898819,10.548166666666667,rate_face,109
785,,13637,21,Vertrauenswürdigkeit,Black,,1563307531709,80,weiblich,,Gar nicht vertrauenswürdig,Sehr vertrauenswürdig,images/inverted/Stimulus-Inverted-Black30.jpg,Inverted,Wie vertrauenswürdig ist dieses Gesicht?,5,Tue Jul 16 2019 21:54:58 GMT+0200 (Central European Summer Time),1563306898819,10.548166666666667,rate_face,110
785,,2578,21,Vertrauenswürdigkeit,White,,1563307531709,80,weiblich,,Gar nicht vertrauenswürdig,Sehr vertrauenswürdig,images/inverted/Stimulus-Inverted-White6.jpg,Inverted,Wie vertrauenswürdig ist dieses Gesicht?,5,Tue Jul 16 2019 21:54:58 GMT+0200 (Central European Summer Time),1563306898819,10.548166666666667,rate_face,111
785,,4852,21,Vertrauenswürdigkeit,Black,,1563307531709,80,weiblich,,Gar nicht vertrauenswürdig,Sehr vertrauenswürdig,images/inverted/Stimulus-Inverted-Black1.jpg,Inverted,Wie vertrauenswürdig ist dieses Gesicht?,5,Tue Jul 16 2019 21:54:58 GMT+0200 (Central European Summer Time),1563306898819,10.548166666666667,rate_face,112
785,,5813,21,Vertrauenswürdigkeit,White,,1563307531709,80,weiblich,,Gar nicht vertrauenswürdig,Sehr vertrauenswürdig,images/inverted/Stimulus-Inverted-White2.jpg,Inverted,Wie vertrauenswürdig ist dieses Gesicht?,3,Tue Jul 16 2019 21:54:58 GMT+0200 (Central European Summer Time),1563306898819,10.548166666666667,rate_face,113
785,,3034,21,Vertrauenswürdigkeit,Black,,1563307531709,80,weiblich,,Gar nicht vertrauenswürdig,Sehr vertrauenswürdig,images/inverted/Stimulus-Inverted-Black15.jpg,Inverted,Wie vertrauenswürdig ist dieses Gesicht?,6,Tue Jul 16 2019 21:54:58 GMT+0200 (Central European Summer Time),1563306898819,10.548166666666667,rate_face,114
785,,3573,21,Vertrauenswürdigkeit,Black,,1563307531709,80,weiblich,,Gar nicht vertrauenswürdig,Sehr vertrauenswürdig,images/inverted/Stimulus-Inverted-Black2.jpg,Inverted,Wie vertrauenswürdig ist dieses Gesicht?,4,Tue Jul 16 2019 21:54:58 GMT+0200 (Central European Summer Time),1563306898819,10.548166666666667,rate_face,115
785,,4144,21,Vertrauenswürdigkeit,Black,,1563307531709,80,weiblich,,Gar nicht vertrauenswürdig,Sehr vertrauenswürdig,images/inverted/Stimulus-Inverted-Black31.jpg,Inverted,Wie vertrauenswürdig ist dieses Gesicht?,6,Tue Jul 16 2019 21:54:58 GMT+0200 (Central European Summer Time),1563306898819,10.548166666666667,rate_face,116
785,,3843,21,Vertrauenswürdigkeit,Black,,1563307531709,80,weiblich,,Gar nicht vertrauenswürdig,Sehr vertrauenswürdig,images/inverted/Stimulus-Inverted-Black17.jpg,Inverted,Wie vertrauenswürdig ist dieses Gesicht?,6,Tue Jul 16 2019 21:54:58 GMT+0200 (Central European Summer Time),1563306898819,10.548166666666667,rate_face,117
785,,3140,21,Vertrauenswürdigkeit,Black,,1563307531709,80,weiblich,,Gar nicht vertrauenswürdig,Sehr vertrauenswürdig,images/inverted/Stimulus-Inverted-Black24.jpg,Inverted,Wie vertrauenswürdig ist dieses Gesicht?,4,Tue Jul 16 2019 21:54:58 GMT+0200 (Central European Summer Time),1563306898819,10.548166666666667,rate_face,118
785,,5767,21,Vertrauenswürdigkeit,Black,,1563307531709,80,weiblich,,Gar nicht vertrauenswürdig,Sehr vertrauenswürdig,images/inverted/Stimulus-Inverted-Black10.jpg,Inverted,Wie vertrauenswürdig ist dieses Gesicht?,6,Tue Jul 16 2019 21:54:58 GMT+0200 (Central European Summer Time),1563306898819,10.548166666666667,rate_face,119
785,,3791,21,Vertrauenswürdigkeit,Black,,1563307531709,80,weiblich,,Gar nicht vertrauenswürdig,Sehr vertrauenswürdig,images/inverted/Stimulus-Inverted-Black6.jpg,Inverted,Wie vertrauenswürdig ist dieses Gesicht?,5,Tue Jul 16 2019 21:54:58 GMT+0200 (Central European Summer Time),1563306898819,10.548166666666667,rate_face,120
785,,7350,21,Vertrauenswürdigkeit,White,,1563307531709,80,weiblich,,Gar nicht vertrauenswürdig,Sehr vertrauenswürdig,images/inverted/Stimulus-Inverted-White17.jpg,Inverted,Wie vertrauenswürdig ist dieses Gesicht?,6,Tue Jul 16 2019 21:54:58 GMT+0200 (Central European Summer Time),1563306898819,10.548166666666667,rate_face,121
785,,5136,21,Vertrauenswürdigkeit,White,,1563307531709,80,weiblich,,Gar nicht vertrauenswürdig,Sehr vertrauenswürdig,images/inverted/Stimulus-Inverted-White20.jpg,Inverted,Wie vertrauenswürdig ist dieses Gesicht?,5,Tue Jul 16 2019 21:54:58 GMT+0200 (Central European Summer Time),1563306898819,10.548166666666667,rate_face,122
785,,4805,21,Vertrauenswürdigkeit,Black,,1563307531709,80,weiblich,,Gar nicht vertrauenswürdig,Sehr vertrauenswürdig,images/inverted/Stimulus-Inverted-Black19.jpg,Inverted,Wie vertrauenswürdig ist dieses Gesicht?,4,Tue Jul 16 2019 21:54:58 GMT+0200 (Central European Summer Time),1563306898819,10.548166666666667,rate_face,123
785,,5594,21,Vertrauenswürdigkeit,White,,1563307531709,80,weiblich,,Gar nicht vertrauenswürdig,Sehr vertrauenswürdig,images/inverted/Stimulus-Inverted-White15.jpg,Inverted,Wie vertrauenswürdig ist dieses Gesicht?,6,Tue Jul 16 2019 21:54:58 GMT+0200 (Central European Summer Time),1563306898819,10.548166666666667,rate_face,124
785,,5875,21,Vertrauenswürdigkeit,White,,1563307531709,80,weiblich,,Gar nicht vertrauenswürdig,Sehr vertrauenswürdig,images/inverted/Stimulus-Inverted-White7.jpg,Inverted,Wie vertrauenswürdig ist dieses Gesicht?,6,Tue Jul 16 2019 21:54:58 GMT+0200 (Central European Summer Time),1563306898819,10.548166666666667,rate_face,125
785,,2838,21,Vertrauenswürdigkeit,Black,,1563307531709,80,weiblich,,Gar nicht vertrauenswürdig,Sehr vertrauenswürdig,images/inverted/Stimulus-Inverted-Black27.jpg,Inverted,Wie vertrauenswürdig ist dieses Gesicht?,5,Tue Jul 16 2019 21:54:58 GMT+0200 (Central European Summer Time),1563306898819,10.548166666666667,rate_face,126
785,,1683,21,Vertrauenswürdigkeit,White,,1563307531709,80,weiblich,,Gar nicht vertrauenswürdig,Sehr vertrauenswürdig,images/inverted/Stimulus-Inverted-White19.jpg,Inverted,Wie vertrauenswürdig ist dieses Gesicht?,5,Tue Jul 16 2019 21:54:58 GMT+0200 (Central European Summer Time),1563306898819,10.548166666666667,rate_face,127
785,,2984,21,Vertrauenswürdigkeit,White,,1563307531709,80,weiblich,,Gar nicht vertrauenswürdig,Sehr vertrauenswürdig,images/inverted/Stimulus-Inverted-White12.jpg,Inverted,Wie vertrauenswürdig ist dieses Gesicht?,4,Tue Jul 16 2019 21:54:58 GMT+0200 (Central European Summer Time),1563306898819,10.548166666666667,rate_face,128
785,,2284,21,Vertrauenswürdigkeit,Black,,1563307531709,80,weiblich,,Gar nicht vertrauenswürdig,Sehr vertrauenswürdig,images/inverted/Stimulus-Inverted-Black29.jpg,Inverted,Wie vertrauenswürdig ist dieses Gesicht?,5,Tue Jul 16 2019 21:54:58 GMT+0200 (Central European Summer Time),1563306898819,10.548166666666667,rate_face,129
785,,1941,21,Vertrauenswürdigkeit,White,,1563307531709,80,weiblich,,Gar nicht vertrauenswürdig,Sehr vertrauenswürdig,images/inverted/Stimulus-Inverted-White28.jpg,Inverted,Wie vertrauenswürdig ist dieses Gesicht?,4,Tue Jul 16 2019 21:54:58 GMT+0200 (Central European Summer Time),1563306898819,10.548166666666667,rate_face,130
785,,1463,21,Vertrauenswürdigkeit,White,,1563307531709,80,weiblich,,Gar nicht vertrauenswürdig,Sehr vertrauenswürdig,images/inverted/Stimulus-Inverted-White32.jpg,Inverted,Wie vertrauenswürdig ist dieses Gesicht?,4,Tue Jul 16 2019 21:54:58 GMT+0200 (Central European Summer Time),1563306898819,10.548166666666667,rate_face,131
785,,1604,21,Vertrauenswürdigkeit,Black,,1563307531709,80,weiblich,,Gar nicht vertrauenswürdig,Sehr vertrauenswürdig,images/inverted/Stimulus-Inverted-Black13.jpg,Inverted,Wie vertrauenswürdig ist dieses Gesicht?,6,Tue Jul 16 2019 21:54:58 GMT+0200 (Central European Summer Time),1563306898819,10.548166666666667,rate_face,132
785,,1478,21,Vertrauenswürdigkeit,Black,,1563307531709,80,weiblich,,Gar nicht vertrauenswürdig,Sehr vertrauenswürdig,images/inverted/Stimulus-Inverted-Black32.jpg,Inverted,Wie vertrauenswürdig ist dieses Gesicht?,6,Tue Jul 16 2019 21:54:58 GMT+0200 (Central European Summer Time),1563306898819,10.548166666666667,rate_face,133
785,,1576,21,Vertrauenswürdigkeit,Black,,1563307531709,80,weiblich,,Gar nicht vertrauenswürdig,Sehr vertrauenswürdig,images/inverted/Stimulus-Inverted-Black18.jpg,Inverted,Wie vertrauenswürdig ist dieses Gesicht?,5,Tue Jul 16 2019 21:54:58 GMT+0200 (Central European Summer Time),1563306898819,10.548166666666667,rate_face,134
785,,1730,21,Vertrauenswürdigkeit,White,,1563307531709,80,weiblich,,Gar nicht vertrauenswürdig,Sehr vertrauenswürdig,images/inverted/Stimulus-Inverted-White14.jpg,Inverted,Wie vertrauenswürdig ist dieses Gesicht?,5,Tue Jul 16 2019 21:54:58 GMT+0200 (Central European Summer Time),1563306898819,10.548166666666667,rate_face,135
785,,1440,21,Vertrauenswürdigkeit,Black,,1563307531709,80,weiblich,,Gar nicht vertrauenswürdig,Sehr vertrauenswürdig,images/inverted/Stimulus-Inverted-Black28.jpg,Inverted,Wie vertrauenswürdig ist dieses Gesicht?,5,Tue Jul 16 2019 21:54:58 GMT+0200 (Central European Summer Time),1563306898819,10.548166666666667,rate_face,136
785,,2790,21,Vertrauenswürdigkeit,Black,,1563307531709,80,weiblich,,Gar nicht vertrauenswürdig,Sehr vertrauenswürdig,images/inverted/Stimulus-Inverted-Black36.jpg,Inverted,Wie vertrauenswürdig ist dieses Gesicht?,5,Tue Jul 16 2019 21:54:58 GMT+0200 (Central European Summer Time),1563306898819,10.548166666666667,rate_face,137
785,,1272,21,Vertrauenswürdigkeit,Black,,1563307531709,80,weiblich,,Gar nicht vertrauenswürdig,Sehr vertrauenswürdig,images/inverted/Stimulus-Inverted-Black23.jpg,Inverted,Wie vertrauenswürdig ist dieses Gesicht?,6,Tue Jul 16 2019 21:54:58 GMT+0200 (Central European Summer Time),1563306898819,10.548166666666667,rate_face,138
785,,602,21,Vertrauenswürdigkeit,White,,1563307531709,80,weiblich,,Gar nicht vertrauenswürdig,Sehr vertrauenswürdig,images/inverted/Stimulus-Inverted-White3.jpg,Inverted,Wie vertrauenswürdig ist dieses Gesicht?,6,Tue Jul 16 2019 21:54:58 GMT+0200 (Central European Summer Time),1563306898819,10.548166666666667,rate_face,139
785,,2244,21,Vertrauenswürdigkeit,White,,1563307531709,80,weiblich,,Gar nicht vertrauenswürdig,Sehr vertrauenswürdig,images/inverted/Stimulus-Inverted-White23.jpg,Inverted,Wie vertrauenswürdig ist dieses Gesicht?,4,Tue Jul 16 2019 21:54:58 GMT+0200 (Central European Summer Time),1563306898819,10.548166666666667,rate_face,140
785,,2126,21,Vertrauenswürdigkeit,Black,,1563307531709,80,weiblich,,Gar nicht vertrauenswürdig,Sehr vertrauenswürdig,images/inverted/Stimulus-Inverted-Black7.jpg,Inverted,Wie vertrauenswürdig ist dieses Gesicht?,5,Tue Jul 16 2019 21:54:58 GMT+0200 (Central European Summer Time),1563306898819,10.548166666666667,rate_face,141
785,,1931,21,Vertrauenswürdigkeit,White,,1563307531709,80,weiblich,,Gar nicht vertrauenswürdig,Sehr vertrauenswürdig,images/inverted/Stimulus-Inverted-White25.jpg,Inverted,Wie vertrauenswürdig ist dieses Gesicht?,3,Tue Jul 16 2019 21:54:58 GMT+0200 (Central European Summer Time),1563306898819,10.548166666666667,rate_face,142
785,,2116,21,Vertrauenswürdigkeit,White,,1563307531709,80,weiblich,,Gar nicht vertrauenswürdig,Sehr vertrauenswürdig,images/inverted/Stimulus-Inverted-White36.jpg,Inverted,Wie vertrauenswürdig ist dieses Gesicht?,5,Tue Jul 16 2019 21:54:58 GMT+0200 (Central European Summer Time),1563306898819,10.548166666666667,rate_face,143
785,,1515,21,Vertrauenswürdigkeit,White,,1563307531709,80,weiblich,,Gar nicht vertrauenswürdig,Sehr vertrauenswürdig,images/inverted/Stimulus-Inverted-White1.jpg,Inverted,Wie vertrauenswürdig ist dieses Gesicht?,5,Tue Jul 16 2019 21:54:58 GMT+0200 (Central European Summer Time),1563306898819,10.548166666666667,rate_face,144
790,Wie bewerten sie das folgende Merkmal?,35819,52,NA,NA,,1563308156067,80,weiblich,Deutsch ,Trifft gleichermaßen auf Menschen und Tiere zu,Trifft nur auf Menschen zu,NA,NA,Geduld,4,Tue Jul 16 2019 22:02:02 GMT+0200 (CEST),1563307322616,13.89085,rate_personality,1
790,Wie bewerten sie das folgende Merkmal?,23446,52,NA,NA,,1563308156067,80,weiblich,Deutsch ,Trifft gleichermaßen auf Menschen und Tiere zu,Trifft nur auf Menschen zu,NA,NA,Vertrauenswürdigkeit,6,Tue Jul 16 2019 22:02:02 GMT+0200 (CEST),1563307322616,13.89085,rate_personality,2
790,Wie bewerten sie das folgende Merkmal?,6349,52,NA,NA,,1563308156067,80,weiblich,Deutsch ,Trifft gleichermaßen auf Menschen und Tiere zu,Trifft nur auf Menschen zu,NA,NA,Selbstsicherheit,1,Tue Jul 16 2019 22:02:02 GMT+0200 (CEST),1563307322616,13.89085,rate_personality,3
790,Wie bewerten sie das folgende Merkmal?,3582,52,NA,NA,,1563308156067,80,weiblich,Deutsch ,Trifft gleichermaßen auf Menschen und Tiere zu,Trifft nur auf Menschen zu,NA,NA,Dominanz,1,Tue Jul 16 2019 22:02:02 GMT+0200 (CEST),1563307322616,13.89085,rate_personality,4
790,Wie bewerten sie das folgende Merkmal?,4350,52,NA,NA,,1563308156067,80,weiblich,Deutsch ,Trifft gleichermaßen auf Menschen und Tiere zu,Trifft nur auf Menschen zu,NA,NA,Agressivität,1,Tue Jul 16 2019 22:02:02 GMT+0200 (CEST),1563307322616,13.89085,rate_personality,5
790,Wie bewerten sie das folgende Merkmal?,6818,52,NA,NA,,1563308156067,80,weiblich,Deutsch ,Trifft gleichermaßen auf Menschen und Tiere zu,Trifft nur auf Menschen zu,NA,NA,Extrovertiertheit,9,Tue Jul 16 2019 22:02:02 GMT+0200 (CEST),1563307322616,13.89085,rate_personality,6
790,Wie bewerten sie das folgende Merkmal?,3030,52,NA,NA,,1563308156067,80,weiblich,Deutsch ,Trifft gleichermaßen auf Menschen und Tiere zu,Trifft nur auf Menschen zu,NA,NA,Gewissenhaftigkeit,9,Tue Jul 16 2019 22:02:02 GMT+0200 (CEST),1563307322616,13.89085,rate_personality,7
790,Wie bewerten sie das folgende Merkmal?,5945,52,NA,NA,,1563308156067,80,weiblich,Deutsch ,Trifft gleichermaßen auf Menschen und Tiere zu,Trifft nur auf Menschen zu,NA,NA,Sensibilität,1,Tue Jul 16 2019 22:02:02 GMT+0200 (CEST),1563307322616,13.89085,rate_personality,8
790,Wie bewerten sie das folgende Merkmal?,3853,52,NA,NA,,1563308156067,80,weiblich,Deutsch ,Trifft gleichermaßen auf Menschen und Tiere zu,Trifft nur auf Menschen zu,NA,NA,Höflichlichkeit,9,Tue Jul 16 2019 22:02:02 GMT+0200 (CEST),1563307322616,13.89085,rate_personality,9
790,Wie bewerten sie das folgende Merkmal?,5229,52,NA,NA,,1563308156067,80,weiblich,Deutsch ,Trifft gleichermaßen auf Menschen und Tiere zu,Trifft nur auf Menschen zu,NA,NA,Freundlichkeit,3,Tue Jul 16 2019 22:02:02 GMT+0200 (CEST),1563307322616,13.89085,rate_personality,10
790,,12517,52,Vertrauenswürdigkeit,Black,,1563308156067,80,weiblich,Deutsch ,Gar nicht vertrauenswürdig,Sehr vertrauenswürdig,images/upright/Stimulus-Upright-Black10.jpg,Upright,Wie vertrauenswürdig ist dieses Gesicht?,2,Tue Jul 16 2019 22:02:02 GMT+0200 (CEST),1563307322616,13.89085,rate_face,1
790,,15247,52,Vertrauenswürdigkeit,White,,1563308156067,80,weiblich,Deutsch ,Gar nicht vertrauenswürdig,Sehr vertrauenswürdig,images/upright/Stimulus-Upright-White28.jpg,Upright,Wie vertrauenswürdig ist dieses Gesicht?,2,Tue Jul 16 2019 22:02:02 GMT+0200 (CEST),1563307322616,13.89085,rate_face,2
790,,6699,52,Vertrauenswürdigkeit,Black,,1563308156067,80,weiblich,Deutsch ,Gar nicht vertrauenswürdig,Sehr vertrauenswürdig,images/upright/Stimulus-Upright-Black13.jpg,Upright,Wie vertrauenswürdig ist dieses Gesicht?,2,Tue Jul 16 2019 22:02:02 GMT+0200 (CEST),1563307322616,13.89085,rate_face,3
790,,3516,52,Vertrauenswürdigkeit,Black,,1563308156067,80,weiblich,Deutsch ,Gar nicht vertrauenswürdig,Sehr vertrauenswürdig,images/upright/Stimulus-Upright-Black17.jpg,Upright,Wie vertrauenswürdig ist dieses Gesicht?,6,Tue Jul 16 2019 22:02:02 GMT+0200 (CEST),1563307322616,13.89085,rate_face,4
790,,3333,52,Vertrauenswürdigkeit,Black,,1563308156067,80,weiblich,Deutsch ,Gar nicht vertrauenswürdig,Sehr vertrauenswürdig,images/upright/Stimulus-Upright-Black33.jpg,Upright,Wie vertrauenswürdig ist dieses Gesicht?,1,Tue Jul 16 2019 22:02:02 GMT+0200 (CEST),1563307322616,13.89085,rate_face,5
790,,4533,52,Vertrauenswürdigkeit,Black,,1563308156067,80,weiblich,Deutsch ,Gar nicht vertrauenswürdig,Sehr vertrauenswürdig,images/upright/Stimulus-Upright-Black26.jpg,Upright,Wie vertrauenswürdig ist dieses Gesicht?,6,Tue Jul 16 2019 22:02:02 GMT+0200 (CEST),1563307322616,13.89085,rate_face,6
790,,4048,52,Vertrauenswürdigkeit,Black,,1563308156067,80,weiblich,Deutsch ,Gar nicht vertrauenswürdig,Sehr vertrauenswürdig,images/upright/Stimulus-Upright-Black3.jpg,Upright,Wie vertrauenswürdig ist dieses Gesicht?,2,Tue Jul 16 2019 22:02:02 GMT+0200 (CEST),1563307322616,13.89085,rate_face,7
790,,6718,52,Vertrauenswürdigkeit,Black,,1563308156067,80,weiblich,Deutsch ,Gar nicht vertrauenswürdig,Sehr vertrauenswürdig,images/upright/Stimulus-Upright-Black11.jpg,Upright,Wie vertrauenswürdig ist dieses Gesicht?,5,Tue Jul 16 2019 22:02:02 GMT+0200 (CEST),1563307322616,13.89085,rate_face,8
790,,3610,52,Vertrauenswürdigkeit,Black,,1563308156067,80,weiblich,Deutsch ,Gar nicht vertrauenswürdig,Sehr vertrauenswürdig,images/upright/Stimulus-Upright-Black16.jpg,Upright,Wie vertrauenswürdig ist dieses Gesicht?,5,Tue Jul 16 2019 22:02:02 GMT+0200 (CEST),1563307322616,13.89085,rate_face,9
790,,3436,52,Vertrauenswürdigkeit,White,,1563308156067,80,weiblich,Deutsch ,Gar nicht vertrauenswürdig,Sehr vertrauenswürdig,images/upright/Stimulus-Upright-White18.jpg,Upright,Wie vertrauenswürdig ist dieses Gesicht?,6,Tue Jul 16 2019 22:02:02 GMT+0200 (CEST),1563307322616,13.89085,rate_face,10
790,,6232,52,Vertrauenswürdigkeit,Black,,1563308156067,80,weiblich,Deutsch ,Gar nicht vertrauenswürdig,Sehr vertrauenswürdig,images/upright/Stimulus-Upright-Black15.jpg,Upright,Wie vertrauenswürdig ist dieses Gesicht?,7,Tue Jul 16 2019 22:02:02 GMT+0200 (CEST),1563307322616,13.89085,rate_face,11
790,,4949,52,Vertrauenswürdigkeit,White,,1563308156067,80,weiblich,Deutsch ,Gar nicht vertrauenswürdig,Sehr vertrauenswürdig,images/upright/Stimulus-Upright-White22.jpg,Upright,Wie vertrauenswürdig ist dieses Gesicht?,7,Tue Jul 16 2019 22:02:02 GMT+0200 (CEST),1563307322616,13.89085,rate_face,12
790,,3216,52,Vertrauenswürdigkeit,Black,,1563308156067,80,weiblich,Deutsch ,Gar nicht vertrauenswürdig,Sehr vertrauenswürdig,images/upright/Stimulus-Upright-Black28.jpg,Upright,Wie vertrauenswürdig ist dieses Gesicht?,6,Tue Jul 16 2019 22:02:02 GMT+0200 (CEST),1563307322616,13.89085,rate_face,13
790,,4766,52,Vertrauenswürdigkeit,White,,1563308156067,80,weiblich,Deutsch ,Gar nicht vertrauenswürdig,Sehr vertrauenswürdig,images/upright/Stimulus-Upright-White16.jpg,Upright,Wie vertrauenswürdig ist dieses Gesicht?,6,Tue Jul 16 2019 22:02:02 GMT+0200 (CEST),1563307322616,13.89085,rate_face,14
790,,3299,52,Vertrauenswürdigkeit,Black,,1563308156067,80,weiblich,Deutsch ,Gar nicht vertrauenswürdig,Sehr vertrauenswürdig,images/upright/Stimulus-Upright-Black34.jpg,Upright,Wie vertrauenswürdig ist dieses Gesicht?,5,Tue Jul 16 2019 22:02:02 GMT+0200 (CEST),1563307322616,13.89085,rate_face,15
790,,3748,52,Vertrauenswürdigkeit,Black,,1563308156067,80,weiblich,Deutsch ,Gar nicht vertrauenswürdig,Sehr vertrauenswürdig,images/upright/Stimulus-Upright-Black36.jpg,Upright,Wie vertrauenswürdig ist dieses Gesicht?,5,Tue Jul 16 2019 22:02:02 GMT+0200 (CEST),1563307322616,13.89085,rate_face,16
790,,9535,52,Vertrauenswürdigkeit,White,,1563308156067,80,weiblich,Deutsch ,Gar nicht vertrauenswürdig,Sehr vertrauenswürdig,images/upright/Stimulus-Upright-White1.jpg,Upright,Wie vertrauenswürdig ist dieses Gesicht?,6,Tue Jul 16 2019 22:02:02 GMT+0200 (CEST),1563307322616,13.89085,rate_face,17
790,,11132,52,Vertrauenswürdigkeit,Black,,1563308156067,80,weiblich,Deutsch ,Gar nicht vertrauenswürdig,Sehr vertrauenswürdig,images/upright/Stimulus-Upright-Black31.jpg,Upright,Wie vertrauenswürdig ist dieses Gesicht?,4,Tue Jul 16 2019 22:02:02 GMT+0200 (CEST),1563307322616,13.89085,rate_face,18
790,,5717,52,Vertrauenswürdigkeit,Black,,1563308156067,80,weiblich,Deutsch ,Gar nicht vertrauenswürdig,Sehr vertrauenswürdig,images/upright/Stimulus-Upright-Black14.jpg,Upright,Wie vertrauenswürdig ist dieses Gesicht?,3,Tue Jul 16 2019 22:02:02 GMT+0200 (CEST),1563307322616,13.89085,rate_face,19
790,,3714,52,Vertrauenswürdigkeit,White,,1563308156067,80,weiblich,Deutsch ,Gar nicht vertrauenswürdig,Sehr vertrauenswürdig,images/upright/Stimulus-Upright-White35.jpg,Upright,Wie vertrauenswürdig ist dieses Gesicht?,5,Tue Jul 16 2019 22:02:02 GMT+0200 (CEST),1563307322616,13.89085,rate_face,20
790,,3715,52,Vertrauenswürdigkeit,White,,1563308156067,80,weiblich,Deutsch ,Gar nicht vertrauenswürdig,Sehr vertrauenswürdig,images/upright/Stimulus-Upright-White3.jpg,Upright,Wie vertrauenswürdig ist dieses Gesicht?,2,Tue Jul 16 2019 22:02:02 GMT+0200 (CEST),1563307322616,13.89085,rate_face,21
790,,3099,52,Vertrauenswürdigkeit,White,,1563308156067,80,weiblich,Deutsch ,Gar nicht vertrauenswürdig,Sehr vertrauenswürdig,images/upright/Stimulus-Upright-White2.jpg,Upright,Wie vertrauenswürdig ist dieses Gesicht?,6,Tue Jul 16 2019 22:02:02 GMT+0200 (CEST),1563307322616,13.89085,rate_face,22
790,,4183,52,Vertrauenswürdigkeit,White,,1563308156067,80,weiblich,Deutsch ,Gar nicht vertrauenswürdig,Sehr vertrauenswürdig,images/upright/Stimulus-Upright-White17.jpg,Upright,Wie vertrauenswürdig ist dieses Gesicht?,7,Tue Jul 16 2019 22:02:02 GMT+0200 (CEST),1563307322616,13.89085,rate_face,23
790,,6049,52,Vertrauenswürdigkeit,White,,1563308156067,80,weiblich,Deutsch ,Gar nicht vertrauenswürdig,Sehr vertrauenswürdig,images/upright/Stimulus-Upright-White12.jpg,Upright,Wie vertrauenswürdig ist dieses Gesicht?,1,Tue Jul 16 2019 22:02:02 GMT+0200 (CEST),1563307322616,13.89085,rate_face,24
790,,3999,52,Vertrauenswürdigkeit,White,,1563308156067,80,weiblich,Deutsch ,Gar nicht vertrauenswürdig,Sehr vertrauenswürdig,images/upright/Stimulus-Upright-White11.jpg,Upright,Wie vertrauenswürdig ist dieses Gesicht?,3,Tue Jul 16 2019 22:02:02 GMT+0200 (CEST),1563307322616,13.89085,rate_face,25
790,,2566,52,Vertrauenswürdigkeit,White,,1563308156067,80,weiblich,Deutsch ,Gar nicht vertrauenswürdig,Sehr vertrauenswürdig,images/upright/Stimulus-Upright-White34.jpg,Upright,Wie vertrauenswürdig ist dieses Gesicht?,1,Tue Jul 16 2019 22:02:02 GMT+0200 (CEST),1563307322616,13.89085,rate_face,26
790,,3513,52,Vertrauenswürdigkeit,Black,,1563308156067,80,weiblich,Deutsch ,Gar nicht vertrauenswürdig,Sehr vertrauenswürdig,images/upright/Stimulus-Upright-Black27.jpg,Upright,Wie vertrauenswürdig ist dieses Gesicht?,6,Tue Jul 16 2019 22:02:02 GMT+0200 (CEST),1563307322616,13.89085,rate_face,27
790,,5852,52,Vertrauenswürdigkeit,White,,1563308156067,80,weiblich,Deutsch ,Gar nicht vertrauenswürdig,Sehr vertrauenswürdig,images/upright/Stimulus-Upright-White27.jpg,Upright,Wie vertrauenswürdig ist dieses Gesicht?,4,Tue Jul 16 2019 22:02:02 GMT+0200 (CEST),1563307322616,13.89085,rate_face,28
790,,4980,52,Vertrauenswürdigkeit,Black,,1563308156067,80,weiblich,Deutsch ,Gar nicht vertrauenswürdig,Sehr vertrauenswürdig,images/upright/Stimulus-Upright-Black30.jpg,Upright,Wie vertrauenswürdig ist dieses Gesicht?,5,Tue Jul 16 2019 22:02:02 GMT+0200 (CEST),1563307322616,13.89085,rate_face,29
790,,5284,52,Vertrauenswürdigkeit,White,,1563308156067,80,weiblich,Deutsch ,Gar nicht vertrauenswürdig,Sehr vertrauenswürdig,images/upright/Stimulus-Upright-White25.jpg,Upright,Wie vertrauenswürdig ist dieses Gesicht?,3,Tue Jul 16 2019 22:02:02 GMT+0200 (CEST),1563307322616,13.89085,rate_face,30
790,,3264,52,Vertrauenswürdigkeit,Black,,1563308156067,80,weiblich,Deutsch ,Gar nicht vertrauenswürdig,Sehr vertrauenswürdig,images/upright/Stimulus-Upright-Black6.jpg,Upright,Wie vertrauenswürdig ist dieses Gesicht?,3,Tue Jul 16 2019 22:02:02 GMT+0200 (CEST),1563307322616,13.89085,rate_face,31
790,,4550,52,Vertrauenswürdigkeit,White,,1563308156067,80,weiblich,Deutsch ,Gar nicht vertrauenswürdig,Sehr vertrauenswürdig,images/upright/Stimulus-Upright-White26.jpg,Upright,Wie vertrauenswürdig ist dieses Gesicht?,2,Tue Jul 16 2019 22:02:02 GMT+0200 (CEST),1563307322616,13.89085,rate_face,32
790,,3149,52,Vertrauenswürdigkeit,White,,1563308156067,80,weiblich,Deutsch ,Gar nicht vertrauenswürdig,Sehr vertrauenswürdig,images/upright/Stimulus-Upright-White5.jpg,Upright,Wie vertrauenswürdig ist dieses Gesicht?,6,Tue Jul 16 2019 22:02:02 GMT+0200 (CEST),1563307322616,13.89085,rate_face,33
790,,3099,52,Vertrauenswürdigkeit,White,,1563308156067,80,weiblich,Deutsch ,Gar nicht vertrauenswürdig,Sehr vertrauenswürdig,images/upright/Stimulus-Upright-White6.jpg,Upright,Wie vertrauenswürdig ist dieses Gesicht?,5,Tue Jul 16 2019 22:02:02 GMT+0200 (CEST),1563307322616,13.89085,rate_face,34
790,,3927,52,Vertrauenswürdigkeit,White,,1563308156067,80,weiblich,Deutsch ,Gar nicht vertrauenswürdig,Sehr vertrauenswürdig,images/upright/Stimulus-Upright-White23.jpg,Upright,Wie vertrauenswürdig ist dieses Gesicht?,3,Tue Jul 16 2019 22:02:02 GMT+0200 (CEST),1563307322616,13.89085,rate_face,35
790,,3287,52,Vertrauenswürdigkeit,Black,,1563308156067,80,weiblich,Deutsch ,Gar nicht vertrauenswürdig,Sehr vertrauenswürdig,images/upright/Stimulus-Upright-Black24.jpg,Upright,Wie vertrauenswürdig ist dieses Gesicht?,4,Tue Jul 16 2019 22:02:02 GMT+0200 (CEST),1563307322616,13.89085,rate_face,36
790,,5298,52,Vertrauenswürdigkeit,Black,,1563308156067,80,weiblich,Deutsch ,Gar nicht vertrauenswürdig,Sehr vertrauenswürdig,images/upright/Stimulus-Upright-Black18.jpg,Upright,Wie vertrauenswürdig ist dieses Gesicht?,6,Tue Jul 16 2019 22:02:02 GMT+0200 (CEST),1563307322616,13.89085,rate_face,37
790,,8646,52,Vertrauenswürdigkeit,White,,1563308156067,80,weiblich,Deutsch ,Gar nicht vertrauenswürdig,Sehr vertrauenswürdig,images/upright/Stimulus-Upright-White8.jpg,Upright,Wie vertrauenswürdig ist dieses Gesicht?,6,Tue Jul 16 2019 22:02:02 GMT+0200 (CEST),1563307322616,13.89085,rate_face,38
790,,2617,52,Vertrauenswürdigkeit,White,,1563308156067,80,weiblich,Deutsch ,Gar nicht vertrauenswürdig,Sehr vertrauenswürdig,images/upright/Stimulus-Upright-White32.jpg,Upright,Wie vertrauenswürdig ist dieses Gesicht?,2,Tue Jul 16 2019 22:02:02 GMT+0200 (CEST),1563307322616,13.89085,rate_face,39
790,,2515,52,Vertrauenswürdigkeit,White,,1563308156067,80,weiblich,Deutsch ,Gar nicht vertrauenswürdig,Sehr vertrauenswürdig,images/upright/Stimulus-Upright-White24.jpg,Upright,Wie vertrauenswürdig ist dieses Gesicht?,7,Tue Jul 16 2019 22:02:02 GMT+0200 (CEST),1563307322616,13.89085,rate_face,40
790,,2948,52,Vertrauenswürdigkeit,White,,1563308156067,80,weiblich,Deutsch ,Gar nicht vertrauenswürdig,Sehr vertrauenswürdig,images/upright/Stimulus-Upright-White33.jpg,Upright,Wie vertrauenswürdig ist dieses Gesicht?,4,Tue Jul 16 2019 22:02:02 GMT+0200 (CEST),1563307322616,13.89085,rate_face,41
790,,4066,52,Vertrauenswürdigkeit,Black,,1563308156067,80,weiblich,Deutsch ,Gar nicht vertrauenswürdig,Sehr vertrauenswürdig,images/upright/Stimulus-Upright-Black8.jpg,Upright,Wie vertrauenswürdig ist dieses Gesicht?,5,Tue Jul 16 2019 22:02:02 GMT+0200 (CEST),1563307322616,13.89085,rate_face,42
790,,4401,52,Vertrauenswürdigkeit,Black,,1563308156067,80,weiblich,Deutsch ,Gar nicht vertrauenswürdig,Sehr vertrauenswürdig,images/upright/Stimulus-Upright-Black4.jpg,Upright,Wie vertrauenswürdig ist dieses Gesicht?,3,Tue Jul 16 2019 22:02:02 GMT+0200 (CEST),1563307322616,13.89085,rate_face,43
790,,3182,52,Vertrauenswürdigkeit,White,,1563308156067,80,weiblich,Deutsch ,Gar nicht vertrauenswürdig,Sehr vertrauenswürdig,images/upright/Stimulus-Upright-White9.jpg,Upright,Wie vertrauenswürdig ist dieses Gesicht?,2,Tue Jul 16 2019 22:02:02 GMT+0200 (CEST),1563307322616,13.89085,rate_face,44
790,,3266,52,Vertrauenswürdigkeit,White,,1563308156067,80,weiblich,Deutsch ,Gar nicht vertrauenswürdig,Sehr vertrauenswürdig,images/upright/Stimulus-Upright-White36.jpg,Upright,Wie vertrauenswürdig ist dieses Gesicht?,6,Tue Jul 16 2019 22:02:02 GMT+0200 (CEST),1563307322616,13.89085,rate_face,45
790,,5348,52,Vertrauenswürdigkeit,Black,,1563308156067,80,weiblich,Deutsch ,Gar nicht vertrauenswürdig,Sehr vertrauenswürdig,images/upright/Stimulus-Upright-Black29.jpg,Upright,Wie vertrauenswürdig ist dieses Gesicht?,3,Tue Jul 16 2019 22:02:02 GMT+0200 (CEST),1563307322616,13.89085,rate_face,46
790,,2999,52,Vertrauenswürdigkeit,White,,1563308156067,80,weiblich,Deutsch ,Gar nicht vertrauenswürdig,Sehr vertrauenswürdig,images/upright/Stimulus-Upright-White15.jpg,Upright,Wie vertrauenswürdig ist dieses Gesicht?,1,Tue Jul 16 2019 22:02:02 GMT+0200 (CEST),1563307322616,13.89085,rate_face,47
790,,2815,52,Vertrauenswürdigkeit,White,,1563308156067,80,weiblich,Deutsch ,Gar nicht vertrauenswürdig,Sehr vertrauenswürdig,images/upright/Stimulus-Upright-White4.jpg,Upright,Wie vertrauenswürdig ist dieses Gesicht?,2,Tue Jul 16 2019 22:02:02 GMT+0200 (CEST),1563307322616,13.89085,rate_face,48
790,,4350,52,Vertrauenswürdigkeit,White,,1563308156067,80,weiblich,Deutsch ,Gar nicht vertrauenswürdig,Sehr vertrauenswürdig,images/upright/Stimulus-Upright-White21.jpg,Upright,Wie vertrauenswürdig ist dieses Gesicht?,6,Tue Jul 16 2019 22:02:02 GMT+0200 (CEST),1563307322616,13.89085,rate_face,49
790,,7132,52,Vertrauenswürdigkeit,Black,,1563308156067,80,weiblich,Deutsch ,Gar nicht vertrauenswürdig,Sehr vertrauenswürdig,images/upright/Stimulus-Upright-Black21.jpg,Upright,Wie vertrauenswürdig ist dieses Gesicht?,3,Tue Jul 16 2019 22:02:02 GMT+0200 (CEST),1563307322616,13.89085,rate_face,50
790,,2716,52,Vertrauenswürdigkeit,Black,,1563308156067,80,weiblich,Deutsch ,Gar nicht vertrauenswürdig,Sehr vertrauenswürdig,images/upright/Stimulus-Upright-Black5.jpg,Upright,Wie vertrauenswürdig ist dieses Gesicht?,4,Tue Jul 16 2019 22:02:02 GMT+0200 (CEST),1563307322616,13.89085,rate_face,51
790,,5496,52,Vertrauenswürdigkeit,White,,1563308156067,80,weiblich,Deutsch ,Gar nicht vertrauenswürdig,Sehr vertrauenswürdig,images/upright/Stimulus-Upright-White30.jpg,Upright,Wie vertrauenswürdig ist dieses Gesicht?,5,Tue Jul 16 2019 22:02:02 GMT+0200 (CEST),1563307322616,13.89085,rate_face,52
790,,3784,52,Vertrauenswürdigkeit,Black,,1563308156067,80,weiblich,Deutsch ,Gar nicht vertrauenswürdig,Sehr vertrauenswürdig,images/upright/Stimulus-Upright-Black23.jpg,Upright,Wie vertrauenswürdig ist dieses Gesicht?,7,Tue Jul 16 2019 22:02:02 GMT+0200 (CEST),1563307322616,13.89085,rate_face,53
790,,2702,52,Vertrauenswürdigkeit,Black,,1563308156067,80,weiblich,Deutsch ,Gar nicht vertrauenswürdig,Sehr vertrauenswürdig,images/upright/Stimulus-Upright-Black12.jpg,Upright,Wie vertrauenswürdig ist dieses Gesicht?,3,Tue Jul 16 2019 22:02:02 GMT+0200 (CEST),1563307322616,13.89085,rate_face,54
790,,2831,52,Vertrauenswürdigkeit,Black,,1563308156067,80,weiblich,Deutsch ,Gar nicht vertrauenswürdig,Sehr vertrauenswürdig,images/upright/Stimulus-Upright-Black20.jpg,Upright,Wie vertrauenswürdig ist dieses Gesicht?,4,Tue Jul 16 2019 22:02:02 GMT+0200 (CEST),1563307322616,13.89085,rate_face,55
790,,2512,52,Vertrauenswürdigkeit,Black,,1563308156067,80,weiblich,Deutsch ,Gar nicht vertrauenswürdig,Sehr vertrauenswürdig,images/upright/Stimulus-Upright-Black25.jpg,Upright,Wie vertrauenswürdig ist dieses Gesicht?,5,Tue Jul 16 2019 22:02:02 GMT+0200 (CEST),1563307322616,13.89085,rate_face,56
790,,5200,52,Vertrauenswürdigkeit,White,,1563308156067,80,weiblich,Deutsch ,Gar nicht vertrauenswürdig,Sehr vertrauenswürdig,images/upright/Stimulus-Upright-White19.jpg,Upright,Wie vertrauenswürdig ist dieses Gesicht?,6,Tue Jul 16 2019 22:02:02 GMT+0200 (CEST),1563307322616,13.89085,rate_face,57
790,,3801,52,Vertrauenswürdigkeit,White,,1563308156067,80,weiblich,Deutsch ,Gar nicht vertrauenswürdig,Sehr vertrauenswürdig,images/upright/Stimulus-Upright-White14.jpg,Upright,Wie vertrauenswürdig ist dieses Gesicht?,3,Tue Jul 16 2019 22:02:02 GMT+0200 (CEST),1563307322616,13.89085,rate_face,58
790,,2644,52,Vertrauenswürdigkeit,Black,,1563308156067,80,weiblich,Deutsch ,Gar nicht vertrauenswürdig,Sehr vertrauenswürdig,images/upright/Stimulus-Upright-Black7.jpg,Upright,Wie vertrauenswürdig ist dieses Gesicht?,4,Tue Jul 16 2019 22:02:02 GMT+0200 (CEST),1563307322616,13.89085,rate_face,59
790,,2589,52,Vertrauenswürdigkeit,White,,1563308156067,80,weiblich,Deutsch ,Gar nicht vertrauenswürdig,Sehr vertrauenswürdig,images/upright/Stimulus-Upright-White31.jpg,Upright,Wie vertrauenswürdig ist dieses Gesicht?,3,Tue Jul 16 2019 22:02:02 GMT+0200 (CEST),1563307322616,13.89085,rate_face,60
790,,3663,52,Vertrauenswürdigkeit,White,,1563308156067,80,weiblich,Deutsch ,Gar nicht vertrauenswürdig,Sehr vertrauenswürdig,images/upright/Stimulus-Upright-White7.jpg,Upright,Wie vertrauenswürdig ist dieses Gesicht?,4,Tue Jul 16 2019 22:02:02 GMT+0200 (CEST),1563307322616,13.89085,rate_face,61
790,,4819,52,Vertrauenswürdigkeit,Black,,1563308156067,80,weiblich,Deutsch ,Gar nicht vertrauenswürdig,Sehr vertrauenswürdig,images/upright/Stimulus-Upright-Black19.jpg,Upright,Wie vertrauenswürdig ist dieses Gesicht?,3,Tue Jul 16 2019 22:02:02 GMT+0200 (CEST),1563307322616,13.89085,rate_face,62
790,,4616,52,Vertrauenswürdigkeit,Black,,1563308156067,80,weiblich,Deutsch ,Gar nicht vertrauenswürdig,Sehr vertrauenswürdig,images/upright/Stimulus-Upright-Black22.jpg,Upright,Wie vertrauenswürdig ist dieses Gesicht?,4,Tue Jul 16 2019 22:02:02 GMT+0200 (CEST),1563307322616,13.89085,rate_face,63
790,,4664,52,Vertrauenswürdigkeit,White,,1563308156067,80,weiblich,Deutsch ,Gar nicht vertrauenswürdig,Sehr vertrauenswürdig,images/upright/Stimulus-Upright-White13.jpg,Upright,Wie vertrauenswürdig ist dieses Gesicht?,4,Tue Jul 16 2019 22:02:02 GMT+0200 (CEST),1563307322616,13.89085,rate_face,64
790,,4150,52,Vertrauenswürdigkeit,White,,1563308156067,80,weiblich,Deutsch ,Gar nicht vertrauenswürdig,Sehr vertrauenswürdig,images/upright/Stimulus-Upright-White10.jpg,Upright,Wie vertrauenswürdig ist dieses Gesicht?,2,Tue Jul 16 2019 22:02:02 GMT+0200 (CEST),1563307322616,13.89085,rate_face,65
790,,4778,52,Vertrauenswürdigkeit,Black,,1563308156067,80,weiblich,Deutsch ,Gar nicht vertrauenswürdig,Sehr vertrauenswürdig,images/upright/Stimulus-Upright-Black1.jpg,Upright,Wie vertrauenswürdig ist dieses Gesicht?,3,Tue Jul 16 2019 22:02:02 GMT+0200 (CEST),1563307322616,13.89085,rate_face,66
790,,6571,52,Vertrauenswürdigkeit,Black,,1563308156067,80,weiblich,Deutsch ,Gar nicht vertrauenswürdig,Sehr vertrauenswürdig,images/upright/Stimulus-Upright-Black9.jpg,Upright,Wie vertrauenswürdig ist dieses Gesicht?,3,Tue Jul 16 2019 22:02:02 GMT+0200 (CEST),1563307322616,13.89085,rate_face,67
790,,14016,52,Vertrauenswürdigkeit,Black,,1563308156067,80,weiblich,Deutsch ,Gar nicht vertrauenswürdig,Sehr vertrauenswürdig,images/upright/Stimulus-Upright-Black2.jpg,Upright,Wie vertrauenswürdig ist dieses Gesicht?,3,Tue Jul 16 2019 22:02:02 GMT+0200 (CEST),1563307322616,13.89085,rate_face,68
790,,4464,52,Vertrauenswürdigkeit,Black,,1563308156067,80,weiblich,Deutsch ,Gar nicht vertrauenswürdig,Sehr vertrauenswürdig,images/upright/Stimulus-Upright-Black32.jpg,Upright,Wie vertrauenswürdig ist dieses Gesicht?,3,Tue Jul 16 2019 22:02:02 GMT+0200 (CEST),1563307322616,13.89085,rate_face,69
790,,7433,52,Vertrauenswürdigkeit,Black,,1563308156067,80,weiblich,Deutsch ,Gar nicht vertrauenswürdig,Sehr vertrauenswürdig,images/upright/Stimulus-Upright-Black35.jpg,Upright,Wie vertrauenswürdig ist dieses Gesicht?,2,Tue Jul 16 2019 22:02:02 GMT+0200 (CEST),1563307322616,13.89085,rate_face,70
790,,2766,52,Vertrauenswürdigkeit,White,,1563308156067,80,weiblich,Deutsch ,Gar nicht vertrauenswürdig,Sehr vertrauenswürdig,images/upright/Stimulus-Upright-White20.jpg,Upright,Wie vertrauenswürdig ist dieses Gesicht?,5,Tue Jul 16 2019 22:02:02 GMT+0200 (CEST),1563307322616,13.89085,rate_face,71
790,,4013,52,Vertrauenswürdigkeit,White,,1563308156067,80,weiblich,Deutsch ,Gar nicht vertrauenswürdig,Sehr vertrauenswürdig,images/upright/Stimulus-Upright-White29.jpg,Upright,Wie vertrauenswürdig ist dieses Gesicht?,3,Tue Jul 16 2019 22:02:02 GMT+0200 (CEST),1563307322616,13.89085,rate_face,72
790,,12371,52,Vertrauenswürdigkeit,Black,,1563308156067,80,weiblich,Deutsch ,Gar nicht vertrauenswürdig,Sehr vertrauenswürdig,images/inverted/Stimulus-Inverted-Black28.jpg,Inverted,Wie vertrauenswürdig ist dieses Gesicht?,4,Tue Jul 16 2019 22:02:02 GMT+0200 (CEST),1563307322616,13.89085,rate_face,73
790,,5865,52,Vertrauenswürdigkeit,White,,1563308156067,80,weiblich,Deutsch ,Gar nicht vertrauenswürdig,Sehr vertrauenswürdig,images/inverted/Stimulus-Inverted-White1.jpg,Inverted,Wie vertrauenswürdig ist dieses Gesicht?,4,Tue Jul 16 2019 22:02:02 GMT+0200 (CEST),1563307322616,13.89085,rate_face,74
790,,2755,52,Vertrauenswürdigkeit,White,,1563308156067,80,weiblich,Deutsch ,Gar nicht vertrauenswürdig,Sehr vertrauenswürdig,images/inverted/Stimulus-Inverted-White17.jpg,Inverted,Wie vertrauenswürdig ist dieses Gesicht?,5,Tue Jul 16 2019 22:02:02 GMT+0200 (CEST),1563307322616,13.89085,rate_face,75
790,,4278,52,Vertrauenswürdigkeit,White,,1563308156067,80,weiblich,Deutsch ,Gar nicht vertrauenswürdig,Sehr vertrauenswürdig,images/inverted/Stimulus-Inverted-White35.jpg,Inverted,Wie vertrauenswürdig ist dieses Gesicht?,6,Tue Jul 16 2019 22:02:02 GMT+0200 (CEST),1563307322616,13.89085,rate_face,76
790,,3732,52,Vertrauenswürdigkeit,White,,1563308156067,80,weiblich,Deutsch ,Gar nicht vertrauenswürdig,Sehr vertrauenswürdig,images/inverted/Stimulus-Inverted-White5.jpg,Inverted,Wie vertrauenswürdig ist dieses Gesicht?,6,Tue Jul 16 2019 22:02:02 GMT+0200 (CEST),1563307322616,13.89085,rate_face,77
790,,3217,52,Vertrauenswürdigkeit,White,,1563308156067,80,weiblich,Deutsch ,Gar nicht vertrauenswürdig,Sehr vertrauenswürdig,images/inverted/Stimulus-Inverted-White12.jpg,Inverted,Wie vertrauenswürdig ist dieses Gesicht?,3,Tue Jul 16 2019 22:02:02 GMT+0200 (CEST),1563307322616,13.89085,rate_face,78
790,,3013,52,Vertrauenswürdigkeit,White,,1563308156067,80,weiblich,Deutsch ,Gar nicht vertrauenswürdig,Sehr vertrauenswürdig,images/inverted/Stimulus-Inverted-White9.jpg,Inverted,Wie vertrauenswürdig ist dieses Gesicht?,4,Tue Jul 16 2019 22:02:02 GMT+0200 (CEST),1563307322616,13.89085,rate_face,79
790,,5368,52,Vertrauenswürdigkeit,Black,,1563308156067,80,weiblich,Deutsch ,Gar nicht vertrauenswürdig,Sehr vertrauenswürdig,images/inverted/Stimulus-Inverted-Black12.jpg,Inverted,Wie vertrauenswürdig ist dieses Gesicht?,5,Tue Jul 16 2019 22:02:02 GMT+0200 (CEST),1563307322616,13.89085,rate_face,80
790,,3398,52,Vertrauenswürdigkeit,White,,1563308156067,80,weiblich,Deutsch ,Gar nicht vertrauenswürdig,Sehr vertrauenswürdig,images/inverted/Stimulus-Inverted-White34.jpg,Inverted,Wie vertrauenswürdig ist dieses Gesicht?,3,Tue Jul 16 2019 22:02:02 GMT+0200 (CEST),1563307322616,13.89085,rate_face,81
790,,2532,52,Vertrauenswürdigkeit,Black,,1563308156067,80,weiblich,Deutsch ,Gar nicht vertrauenswürdig,Sehr vertrauenswürdig,images/inverted/Stimulus-Inverted-Black31.jpg,Inverted,Wie vertrauenswürdig ist dieses Gesicht?,5,Tue Jul 16 2019 22:02:02 GMT+0200 (CEST),1563307322616,13.89085,rate_face,82
790,,3815,52,Vertrauenswürdigkeit,White,,1563308156067,80,weiblich,Deutsch ,Gar nicht vertrauenswürdig,Sehr vertrauenswürdig,images/inverted/Stimulus-Inverted-White20.jpg,Inverted,Wie vertrauenswürdig ist dieses Gesicht?,5,Tue Jul 16 2019 22:02:02 GMT+0200 (CEST),1563307322616,13.89085,rate_face,83
790,,3032,52,Vertrauenswürdigkeit,Black,,1563308156067,80,weiblich,Deutsch ,Gar nicht vertrauenswürdig,Sehr vertrauenswürdig,images/inverted/Stimulus-Inverted-Black33.jpg,Inverted,Wie vertrauenswürdig ist dieses Gesicht?,3,Tue Jul 16 2019 22:02:02 GMT+0200 (CEST),1563307322616,13.89085,rate_face,84
790,,6164,52,Vertrauenswürdigkeit,Black,,1563308156067,80,weiblich,Deutsch ,Gar nicht vertrauenswürdig,Sehr vertrauenswürdig,images/inverted/Stimulus-Inverted-Black10.jpg,Inverted,Wie vertrauenswürdig ist dieses Gesicht?,4,Tue Jul 16 2019 22:02:02 GMT+0200 (CEST),1563307322616,13.89085,rate_face,85
790,,4685,52,Vertrauenswürdigkeit,Black,,1563308156067,80,weiblich,Deutsch ,Gar nicht vertrauenswürdig,Sehr vertrauenswürdig,images/inverted/Stimulus-Inverted-Black8.jpg,Inverted,Wie vertrauenswürdig ist dieses Gesicht?,4,Tue Jul 16 2019 22:02:02 GMT+0200 (CEST),1563307322616,13.89085,rate_face,86
790,,2566,52,Vertrauenswürdigkeit,Black,,1563308156067,80,weiblich,Deutsch ,Gar nicht vertrauenswürdig,Sehr vertrauenswürdig,images/inverted/Stimulus-Inverted-Black7.jpg,Inverted,Wie vertrauenswürdig ist dieses Gesicht?,5,Tue Jul 16 2019 22:02:02 GMT+0200 (CEST),1563307322616,13.89085,rate_face,87
790,,2598,52,Vertrauenswürdigkeit,Black,,1563308156067,80,weiblich,Deutsch ,Gar nicht vertrauenswürdig,Sehr vertrauenswürdig,images/inverted/Stimulus-Inverted-Black17.jpg,Inverted,Wie vertrauenswürdig ist dieses Gesicht?,5,Tue Jul 16 2019 22:02:02 GMT+0200 (CEST),1563307322616,13.89085,rate_face,88
790,,5016,52,Vertrauenswürdigkeit,White,,1563308156067,80,weiblich,Deutsch ,Gar nicht vertrauenswürdig,Sehr vertrauenswürdig,images/inverted/Stimulus-Inverted-White29.jpg,Inverted,Wie vertrauenswürdig ist dieses Gesicht?,4,Tue Jul 16 2019 22:02:02 GMT+0200 (CEST),1563307322616,13.89085,rate_face,89
790,,3334,52,Vertrauenswürdigkeit,White,,1563308156067,80,weiblich,Deutsch ,Gar nicht vertrauenswürdig,Sehr vertrauenswürdig,images/inverted/Stimulus-Inverted-White32.jpg,Inverted,Wie vertrauenswürdig ist dieses Gesicht?,5,Tue Jul 16 2019 22:02:02 GMT+0200 (CEST),1563307322616,13.89085,rate_face,90
790,,3180,52,Vertrauenswürdigkeit,White,,1563308156067,80,weiblich,Deutsch ,Gar nicht vertrauenswürdig,Sehr vertrauenswürdig,images/inverted/Stimulus-Inverted-White15.jpg,Inverted,Wie vertrauenswürdig ist dieses Gesicht?,2,Tue Jul 16 2019 22:02:02 GMT+0200 (CEST),1563307322616,13.89085,rate_face,91
790,,9936,52,Vertrauenswürdigkeit,White,,1563308156067,80,weiblich,Deutsch ,Gar nicht vertrauenswürdig,Sehr vertrauenswürdig,images/inverted/Stimulus-Inverted-White27.jpg,Inverted,Wie vertrauenswürdig ist dieses Gesicht?,4,Tue Jul 16 2019 22:02:02 GMT+0200 (CEST),1563307322616,13.89085,rate_face,92
790,,6248,52,Vertrauenswürdigkeit,White,,1563308156067,80,weiblich,Deutsch ,Gar nicht vertrauenswürdig,Sehr vertrauenswürdig,images/inverted/Stimulus-Inverted-White30.jpg,Inverted,Wie vertrauenswürdig ist dieses Gesicht?,4,Tue Jul 16 2019 22:02:02 GMT+0200 (CEST),1563307322616,13.89085,rate_face,93
790,,2600,52,Vertrauenswürdigkeit,White,,1563308156067,80,weiblich,Deutsch ,Gar nicht vertrauenswürdig,Sehr vertrauenswürdig,images/inverted/Stimulus-Inverted-White7.jpg,Inverted,Wie vertrauenswürdig ist dieses Gesicht?,6,Tue Jul 16 2019 22:02:02 GMT+0200 (CEST),1563307322616,13.89085,rate_face,94
790,,3850,52,Vertrauenswürdigkeit,Black,,1563308156067,80,weiblich,Deutsch ,Gar nicht vertrauenswürdig,Sehr vertrauenswürdig,images/inverted/Stimulus-Inverted-Black16.jpg,Inverted,Wie vertrauenswürdig ist dieses Gesicht?,5,Tue Jul 16 2019 22:02:02 GMT+0200 (CEST),1563307322616,13.89085,rate_face,95
790,,5451,52,Vertrauenswürdigkeit,Black,,1563308156067,80,weiblich,Deutsch ,Gar nicht vertrauenswürdig,Sehr vertrauenswürdig,images/inverted/Stimulus-Inverted-Black14.jpg,Inverted,Wie vertrauenswürdig ist dieses Gesicht?,4,Tue Jul 16 2019 22:02:02 GMT+0200 (CEST),1563307322616,13.89085,rate_face,96
790,,2930,52,Vertrauenswürdigkeit,Black,,1563308156067,80,weiblich,Deutsch ,Gar nicht vertrauenswürdig,Sehr vertrauenswürdig,images/inverted/Stimulus-Inverted-Black15.jpg,Inverted,Wie vertrauenswürdig ist dieses Gesicht?,4,Tue Jul 16 2019 22:02:02 GMT+0200 (CEST),1563307322616,13.89085,rate_face,97
790,,3267,52,Vertrauenswürdigkeit,Black,,1563308156067,80,weiblich,Deutsch ,Gar nicht vertrauenswürdig,Sehr vertrauenswürdig,images/inverted/Stimulus-Inverted-Black21.jpg,Inverted,Wie vertrauenswürdig ist dieses Gesicht?,3,Tue Jul 16 2019 22:02:02 GMT+0200 (CEST),1563307322616,13.89085,rate_face,98
790,,2665,52,Vertrauenswürdigkeit,White,,1563308156067,80,weiblich,Deutsch ,Gar nicht vertrauenswürdig,Sehr vertrauenswürdig,images/inverted/Stimulus-Inverted-White18.jpg,Inverted,Wie vertrauenswürdig ist dieses Gesicht?,5,Tue Jul 16 2019 22:02:02 GMT+0200 (CEST),1563307322616,13.89085,rate_face,99
790,,3699,52,Vertrauenswürdigkeit,White,,1563308156067,80,weiblich,Deutsch ,Gar nicht vertrauenswürdig,Sehr vertrauenswürdig,images/inverted/Stimulus-Inverted-White23.jpg,Inverted,Wie vertrauenswürdig ist dieses Gesicht?,4,Tue Jul 16 2019 22:02:02 GMT+0200 (CEST),1563307322616,13.89085,rate_face,100
790,,5949,52,Vertrauenswürdigkeit,Black,,1563308156067,80,weiblich,Deutsch ,Gar nicht vertrauenswürdig,Sehr vertrauenswürdig,images/inverted/Stimulus-Inverted-Black29.jpg,Inverted,Wie vertrauenswürdig ist dieses Gesicht?,4,Tue Jul 16 2019 22:02:02 GMT+0200 (CEST),1563307322616,13.89085,rate_face,101
790,,2598,52,Vertrauenswürdigkeit,Black,,1563308156067,80,weiblich,Deutsch ,Gar nicht vertrauenswürdig,Sehr vertrauenswürdig,images/inverted/Stimulus-Inverted-Black2.jpg,Inverted,Wie vertrauenswürdig ist dieses Gesicht?,4,Tue Jul 16 2019 22:02:02 GMT+0200 (CEST),1563307322616,13.89085,rate_face,102
790,,4217,52,Vertrauenswürdigkeit,Black,,1563308156067,80,weiblich,Deutsch ,Gar nicht vertrauenswürdig,Sehr vertrauenswürdig,images/inverted/Stimulus-Inverted-Black20.jpg,Inverted,Wie vertrauenswürdig ist dieses Gesicht?,5,Tue Jul 16 2019 22:02:02 GMT+0200 (CEST),1563307322616,13.89085,rate_face,103
790,,5516,52,Vertrauenswürdigkeit,Black,,1563308156067,80,weiblich,Deutsch ,Gar nicht vertrauenswürdig,Sehr vertrauenswürdig,images/inverted/Stimulus-Inverted-Black5.jpg,Inverted,Wie vertrauenswürdig ist dieses Gesicht?,4,Tue Jul 16 2019 22:02:02 GMT+0200 (CEST),1563307322616,13.89085,rate_face,104
790,,2914,52,Vertrauenswürdigkeit,Black,,1563308156067,80,weiblich,Deutsch ,Gar nicht vertrauenswürdig,Sehr vertrauenswürdig,images/inverted/Stimulus-Inverted-Black25.jpg,Inverted,Wie vertrauenswürdig ist dieses Gesicht?,4,Tue Jul 16 2019 22:02:02 GMT+0200 (CEST),1563307322616,13.89085,rate_face,105
790,,3834,52,Vertrauenswürdigkeit,Black,,1563308156067,80,weiblich,Deutsch ,Gar nicht vertrauenswürdig,Sehr vertrauenswürdig,images/inverted/Stimulus-Inverted-Black23.jpg,Inverted,Wie vertrauenswürdig ist dieses Gesicht?,5,Tue Jul 16 2019 22:02:02 GMT+0200 (CEST),1563307322616,13.89085,rate_face,106
790,,3328,52,Vertrauenswürdigkeit,Black,,1563308156067,80,weiblich,Deutsch ,Gar nicht vertrauenswürdig,Sehr vertrauenswürdig,images/inverted/Stimulus-Inverted-Black34.jpg,Inverted,Wie vertrauenswürdig ist dieses Gesicht?,3,Tue Jul 16 2019 22:02:02 GMT+0200 (CEST),1563307322616,13.89085,rate_face,107
790,,2387,52,Vertrauenswürdigkeit,Black,,1563308156067,80,weiblich,Deutsch ,Gar nicht vertrauenswürdig,Sehr vertrauenswürdig,images/inverted/Stimulus-Inverted-Black22.jpg,Inverted,Wie vertrauenswürdig ist dieses Gesicht?,5,Tue Jul 16 2019 22:02:02 GMT+0200 (CEST),1563307322616,13.89085,rate_face,108
790,,4333,52,Vertrauenswürdigkeit,White,,1563308156067,80,weiblich,Deutsch ,Gar nicht vertrauenswürdig,Sehr vertrauenswürdig,images/inverted/Stimulus-Inverted-White4.jpg,Inverted,Wie vertrauenswürdig ist dieses Gesicht?,6,Tue Jul 16 2019 22:02:02 GMT+0200 (CEST),1563307322616,13.89085,rate_face,109
790,,5579,52,Vertrauenswürdigkeit,White,,1563308156067,80,weiblich,Deutsch ,Gar nicht vertrauenswürdig,Sehr vertrauenswürdig,images/inverted/Stimulus-Inverted-White24.jpg,Inverted,Wie vertrauenswürdig ist dieses Gesicht?,4,Tue Jul 16 2019 22:02:02 GMT+0200 (CEST),1563307322616,13.89085,rate_face,110
790,,4251,52,Vertrauenswürdigkeit,Black,,1563308156067,80,weiblich,Deutsch ,Gar nicht vertrauenswürdig,Sehr vertrauenswürdig,images/inverted/Stimulus-Inverted-Black1.jpg,Inverted,Wie vertrauenswürdig ist dieses Gesicht?,4,Tue Jul 16 2019 22:02:02 GMT+0200 (CEST),1563307322616,13.89085,rate_face,111
790,,2231,52,Vertrauenswürdigkeit,White,,1563308156067,80,weiblich,Deutsch ,Gar nicht vertrauenswürdig,Sehr vertrauenswürdig,images/inverted/Stimulus-Inverted-White6.jpg,Inverted,Wie vertrauenswürdig ist dieses Gesicht?,5,Tue Jul 16 2019 22:02:02 GMT+0200 (CEST),1563307322616,13.89085,rate_face,112
790,,4249,52,Vertrauenswürdigkeit,White,,1563308156067,80,weiblich,Deutsch ,Gar nicht vertrauenswürdig,Sehr vertrauenswürdig,images/inverted/Stimulus-Inverted-White8.jpg,Inverted,Wie vertrauenswürdig ist dieses Gesicht?,4,Tue Jul 16 2019 22:02:02 GMT+0200 (CEST),1563307322616,13.89085,rate_face,113
790,,8217,52,Vertrauenswürdigkeit,Black,,1563308156067,80,weiblich,Deutsch ,Gar nicht vertrauenswürdig,Sehr vertrauenswürdig,images/inverted/Stimulus-Inverted-Black13.jpg,Inverted,Wie vertrauenswürdig ist dieses Gesicht?,5,Tue Jul 16 2019 22:02:02 GMT+0200 (CEST),1563307322616,13.89085,rate_face,114
790,,3833,52,Vertrauenswürdigkeit,White,,1563308156067,80,weiblich,Deutsch ,Gar nicht vertrauenswürdig,Sehr vertrauenswürdig,images/inverted/Stimulus-Inverted-White19.jpg,Inverted,Wie vertrauenswürdig ist dieses Gesicht?,5,Tue Jul 16 2019 22:02:02 GMT+0200 (CEST),1563307322616,13.89085,rate_face,115
790,,2966,52,Vertrauenswürdigkeit,Black,,1563308156067,80,weiblich,Deutsch ,Gar nicht vertrauenswürdig,Sehr vertrauenswürdig,images/inverted/Stimulus-Inverted-Black18.jpg,Inverted,Wie vertrauenswürdig ist dieses Gesicht?,5,Tue Jul 16 2019 22:02:02 GMT+0200 (CEST),1563307322616,13.89085,rate_face,116
790,,2732,52,Vertrauenswürdigkeit,White,,1563308156067,80,weiblich,Deutsch ,Gar nicht vertrauenswürdig,Sehr vertrauenswürdig,images/inverted/Stimulus-Inverted-White14.jpg,Inverted,Wie vertrauenswürdig ist dieses Gesicht?,2,Tue Jul 16 2019 22:02:02 GMT+0200 (CEST),1563307322616,13.89085,rate_face,117
790,,3699,52,Vertrauenswürdigkeit,Black,,1563308156067,80,weiblich,Deutsch ,Gar nicht vertrauenswürdig,Sehr vertrauenswürdig,images/inverted/Stimulus-Inverted-Black24.jpg,Inverted,Wie vertrauenswürdig ist dieses Gesicht?,3,Tue Jul 16 2019 22:02:02 GMT+0200 (CEST),1563307322616,13.89085,rate_face,118
790,,3365,52,Vertrauenswürdigkeit,White,,1563308156067,80,weiblich,Deutsch ,Gar nicht vertrauenswürdig,Sehr vertrauenswürdig,images/inverted/Stimulus-Inverted-White13.jpg,Inverted,Wie vertrauenswürdig ist dieses Gesicht?,4,Tue Jul 16 2019 22:02:02 GMT+0200 (CEST),1563307322616,13.89085,rate_face,119
790,,2416,52,Vertrauenswürdigkeit,White,,1563308156067,80,weiblich,Deutsch ,Gar nicht vertrauenswürdig,Sehr vertrauenswürdig,images/inverted/Stimulus-Inverted-White36.jpg,Inverted,Wie vertrauenswürdig ist dieses Gesicht?,5,Tue Jul 16 2019 22:02:02 GMT+0200 (CEST),1563307322616,13.89085,rate_face,120
790,,3516,52,Vertrauenswürdigkeit,Black,,1563308156067,80,weiblich,Deutsch ,Gar nicht vertrauenswürdig,Sehr vertrauenswürdig,images/inverted/Stimulus-Inverted-Black35.jpg,Inverted,Wie vertrauenswürdig ist dieses Gesicht?,3,Tue Jul 16 2019 22:02:02 GMT+0200 (CEST),1563307322616,13.89085,rate_face,121
790,,2548,52,Vertrauenswürdigkeit,White,,1563308156067,80,weiblich,Deutsch ,Gar nicht vertrauenswürdig,Sehr vertrauenswürdig,images/inverted/Stimulus-Inverted-White25.jpg,Inverted,Wie vertrauenswürdig ist dieses Gesicht?,3,Tue Jul 16 2019 22:02:02 GMT+0200 (CEST),1563307322616,13.89085,rate_face,122
790,,2850,52,Vertrauenswürdigkeit,Black,,1563308156067,80,weiblich,Deutsch ,Gar nicht vertrauenswürdig,Sehr vertrauenswürdig,images/inverted/Stimulus-Inverted-Black4.jpg,Inverted,Wie vertrauenswürdig ist dieses Gesicht?,4,Tue Jul 16 2019 22:02:02 GMT+0200 (CEST),1563307322616,13.89085,rate_face,123
790,,3627,52,Vertrauenswürdigkeit,Black,,1563308156067,80,weiblich,Deutsch ,Gar nicht vertrauenswürdig,Sehr vertrauenswürdig,images/inverted/Stimulus-Inverted-Black27.jpg,Inverted,Wie vertrauenswürdig ist dieses Gesicht?,5,Tue Jul 16 2019 22:02:02 GMT+0200 (CEST),1563307322616,13.89085,rate_face,124
790,,2672,52,Vertrauenswürdigkeit,White,,1563308156067,80,weiblich,Deutsch ,Gar nicht vertrauenswürdig,Sehr vertrauenswürdig,images/inverted/Stimulus-Inverted-White26.jpg,Inverted,Wie vertrauenswürdig ist dieses Gesicht?,2,Tue Jul 16 2019 22:02:02 GMT+0200 (CEST),1563307322616,13.89085,rate_face,125
790,,2581,52,Vertrauenswürdigkeit,White,,1563308156067,80,weiblich,Deutsch ,Gar nicht vertrauenswürdig,Sehr vertrauenswürdig,images/inverted/Stimulus-Inverted-White21.jpg,Inverted,Wie vertrauenswürdig ist dieses Gesicht?,4,Tue Jul 16 2019 22:02:02 GMT+0200 (CEST),1563307322616,13.89085,rate_face,126
790,,2432,52,Vertrauenswürdigkeit,Black,,1563308156067,80,weiblich,Deutsch ,Gar nicht vertrauenswürdig,Sehr vertrauenswürdig,images/inverted/Stimulus-Inverted-Black36.jpg,Inverted,Wie vertrauenswürdig ist dieses Gesicht?,4,Tue Jul 16 2019 22:02:02 GMT+0200 (CEST),1563307322616,13.89085,rate_face,127
790,,2315,52,Vertrauenswürdigkeit,White,,1563308156067,80,weiblich,Deutsch ,Gar nicht vertrauenswürdig,Sehr vertrauenswürdig,images/inverted/Stimulus-Inverted-White2.jpg,Inverted,Wie vertrauenswürdig ist dieses Gesicht?,4,Tue Jul 16 2019 22:02:02 GMT+0200 (CEST),1563307322616,13.89085,rate_face,128
790,,2483,52,Vertrauenswürdigkeit,White,,1563308156067,80,weiblich,Deutsch ,Gar nicht vertrauenswürdig,Sehr vertrauenswürdig,images/inverted/Stimulus-Inverted-White31.jpg,Inverted,Wie vertrauenswürdig ist dieses Gesicht?,2,Tue Jul 16 2019 22:02:02 GMT+0200 (CEST),1563307322616,13.89085,rate_face,129
790,,2780,52,Vertrauenswürdigkeit,White,,1563308156067,80,weiblich,Deutsch ,Gar nicht vertrauenswürdig,Sehr vertrauenswürdig,images/inverted/Stimulus-Inverted-White3.jpg,Inverted,Wie vertrauenswürdig ist dieses Gesicht?,5,Tue Jul 16 2019 22:02:02 GMT+0200 (CEST),1563307322616,13.89085,rate_face,130
790,,2052,52,Vertrauenswürdigkeit,White,,1563308156067,80,weiblich,Deutsch ,Gar nicht vertrauenswürdig,Sehr vertrauenswürdig,images/inverted/Stimulus-Inverted-White33.jpg,Inverted,Wie vertrauenswürdig ist dieses Gesicht?,6,Tue Jul 16 2019 22:02:02 GMT+0200 (CEST),1563307322616,13.89085,rate_face,131
790,,2314,52,Vertrauenswürdigkeit,Black,,1563308156067,80,weiblich,Deutsch ,Gar nicht vertrauenswürdig,Sehr vertrauenswürdig,images/inverted/Stimulus-Inverted-Black11.jpg,Inverted,Wie vertrauenswürdig ist dieses Gesicht?,3,Tue Jul 16 2019 22:02:02 GMT+0200 (CEST),1563307322616,13.89085,rate_face,132
790,,3483,52,Vertrauenswürdigkeit,White,,1563308156067,80,weiblich,Deutsch ,Gar nicht vertrauenswürdig,Sehr vertrauenswürdig,images/inverted/Stimulus-Inverted-White28.jpg,Inverted,Wie vertrauenswürdig ist dieses Gesicht?,4,Tue Jul 16 2019 22:02:02 GMT+0200 (CEST),1563307322616,13.89085,rate_face,133
790,,4765,52,Vertrauenswürdigkeit,Black,,1563308156067,80,weiblich,Deutsch ,Gar nicht vertrauenswürdig,Sehr vertrauenswürdig,images/inverted/Stimulus-Inverted-Black19.jpg,Inverted,Wie vertrauenswürdig ist dieses Gesicht?,3,Tue Jul 16 2019 22:02:02 GMT+0200 (CEST),1563307322616,13.89085,rate_face,134
790,,2232,52,Vertrauenswürdigkeit,Black,,1563308156067,80,weiblich,Deutsch ,Gar nicht vertrauenswürdig,Sehr vertrauenswürdig,images/inverted/Stimulus-Inverted-Black26.jpg,Inverted,Wie vertrauenswürdig ist dieses Gesicht?,1,Tue Jul 16 2019 22:02:02 GMT+0200 (CEST),1563307322616,13.89085,rate_face,135
790,,4149,52,Vertrauenswürdigkeit,White,,1563308156067,80,weiblich,Deutsch ,Gar nicht vertrauenswürdig,Sehr vertrauenswürdig,images/inverted/Stimulus-Inverted-White16.jpg,Inverted,Wie vertrauenswürdig ist dieses Gesicht?,4,Tue Jul 16 2019 22:02:02 GMT+0200 (CEST),1563307322616,13.89085,rate_face,136
790,,2149,52,Vertrauenswürdigkeit,White,,1563308156067,80,weiblich,Deutsch ,Gar nicht vertrauenswürdig,Sehr vertrauenswürdig,images/inverted/Stimulus-Inverted-White22.jpg,Inverted,Wie vertrauenswürdig ist dieses Gesicht?,5,Tue Jul 16 2019 22:02:02 GMT+0200 (CEST),1563307322616,13.89085,rate_face,137
790,,2399,52,Vertrauenswürdigkeit,Black,,1563308156067,80,weiblich,Deutsch ,Gar nicht vertrauenswürdig,Sehr vertrauenswürdig,images/inverted/Stimulus-Inverted-Black9.jpg,Inverted,Wie vertrauenswürdig ist dieses Gesicht?,2,Tue Jul 16 2019 22:02:02 GMT+0200 (CEST),1563307322616,13.89085,rate_face,138
790,,3483,52,Vertrauenswürdigkeit,Black,,1563308156067,80,weiblich,Deutsch ,Gar nicht vertrauenswürdig,Sehr vertrauenswürdig,images/inverted/Stimulus-Inverted-Black6.jpg,Inverted,Wie vertrauenswürdig ist dieses Gesicht?,4,Tue Jul 16 2019 22:02:02 GMT+0200 (CEST),1563307322616,13.89085,rate_face,139
790,,2965,52,Vertrauenswürdigkeit,Black,,1563308156067,80,weiblich,Deutsch ,Gar nicht vertrauenswürdig,Sehr vertrauenswürdig,images/inverted/Stimulus-Inverted-Black3.jpg,Inverted,Wie vertrauenswürdig ist dieses Gesicht?,2,Tue Jul 16 2019 22:02:02 GMT+0200 (CEST),1563307322616,13.89085,rate_face,140
790,,2498,52,Vertrauenswürdigkeit,Black,,1563308156067,80,weiblich,Deutsch ,Gar nicht vertrauenswürdig,Sehr vertrauenswürdig,images/inverted/Stimulus-Inverted-Black32.jpg,Inverted,Wie vertrauenswürdig ist dieses Gesicht?,5,Tue Jul 16 2019 22:02:02 GMT+0200 (CEST),1563307322616,13.89085,rate_face,141
790,,4615,52,Vertrauenswürdigkeit,White,,1563308156067,80,weiblich,Deutsch ,Gar nicht vertrauenswürdig,Sehr vertrauenswürdig,images/inverted/Stimulus-Inverted-White11.jpg,Inverted,Wie vertrauenswürdig ist dieses Gesicht?,5,Tue Jul 16 2019 22:02:02 GMT+0200 (CEST),1563307322616,13.89085,rate_face,142
790,,2265,52,Vertrauenswürdigkeit,Black,,1563308156067,80,weiblich,Deutsch ,Gar nicht vertrauenswürdig,Sehr vertrauenswürdig,images/inverted/Stimulus-Inverted-Black30.jpg,Inverted,Wie vertrauenswürdig ist dieses Gesicht?,2,Tue Jul 16 2019 22:02:02 GMT+0200 (CEST),1563307322616,13.89085,rate_face,143
790,,2716,52,Vertrauenswürdigkeit,White,,1563308156067,80,weiblich,Deutsch ,Gar nicht vertrauenswürdig,Sehr vertrauenswürdig,images/inverted/Stimulus-Inverted-White10.jpg,Inverted,Wie vertrauenswürdig ist dieses Gesicht?,2,Tue Jul 16 2019 22:02:02 GMT+0200 (CEST),1563307322616,13.89085,rate_face,144
793,Wie bewerten sie das folgende Merkmal?,11033,20,NA,NA,,1563308518826,80,weiblich,deutsch,Trifft gleichermaßen auf Menschen und Tiere zu,Trifft nur auf Menschen zu,NA,NA,Dominanz,3,Tue Jul 16 2019 22:10:44 GMT+0200 (GMT+02:00),1563307844887,11.232316666666666,rate_personality,1
793,Wie bewerten sie das folgende Merkmal?,4440,20,NA,NA,,1563308518826,80,weiblich,deutsch,Trifft gleichermaßen auf Menschen und Tiere zu,Trifft nur auf Menschen zu,NA,NA,Geduld,7,Tue Jul 16 2019 22:10:44 GMT+0200 (GMT+02:00),1563307844887,11.232316666666666,rate_personality,2
793,Wie bewerten sie das folgende Merkmal?,6211,20,NA,NA,,1563308518826,80,weiblich,deutsch,Trifft gleichermaßen auf Menschen und Tiere zu,Trifft nur auf Menschen zu,NA,NA,Höflichlichkeit,5,Tue Jul 16 2019 22:10:44 GMT+0200 (GMT+02:00),1563307844887,11.232316666666666,rate_personality,3
793,Wie bewerten sie das folgende Merkmal?,5209,20,NA,NA,,1563308518826,80,weiblich,deutsch,Trifft gleichermaßen auf Menschen und Tiere zu,Trifft nur auf Menschen zu,NA,NA,Sensibilität,3,Tue Jul 16 2019 22:10:44 GMT+0200 (GMT+02:00),1563307844887,11.232316666666666,rate_personality,4
793,Wie bewerten sie das folgende Merkmal?,4376,20,NA,NA,,1563308518826,80,weiblich,deutsch,Trifft gleichermaßen auf Menschen und Tiere zu,Trifft nur auf Menschen zu,NA,NA,Gewissenhaftigkeit,8,Tue Jul 16 2019 22:10:44 GMT+0200 (GMT+02:00),1563307844887,11.232316666666666,rate_personality,5
793,Wie bewerten sie das folgende Merkmal?,5057,20,NA,NA,,1563308518826,80,weiblich,deutsch,Trifft gleichermaßen auf Menschen und Tiere zu,Trifft nur auf Menschen zu,NA,NA,Agressivität,4,Tue Jul 16 2019 22:10:44 GMT+0200 (GMT+02:00),1563307844887,11.232316666666666,rate_personality,6
793,Wie bewerten sie das folgende Merkmal?,6514,20,NA,NA,,1563308518826,80,weiblich,deutsch,Trifft gleichermaßen auf Menschen und Tiere zu,Trifft nur auf Menschen zu,NA,NA,Freundlichkeit,7,Tue Jul 16 2019 22:10:44 GMT+0200 (GMT+02:00),1563307844887,11.232316666666666,rate_personality,7
793,Wie bewerten sie das folgende Merkmal?,2815,20,NA,NA,,1563308518826,80,weiblich,deutsch,Trifft gleichermaßen auf Menschen und Tiere zu,Trifft nur auf Menschen zu,NA,NA,Vertrauenswürdigkeit,9,Tue Jul 16 2019 22:10:44 GMT+0200 (GMT+02:00),1563307844887,11.232316666666666,rate_personality,8
793,Wie bewerten sie das folgende Merkmal?,6893,20,NA,NA,,1563308518826,80,weiblich,deutsch,Trifft gleichermaßen auf Menschen und Tiere zu,Trifft nur auf Menschen zu,NA,NA,Selbstsicherheit,7,Tue Jul 16 2019 22:10:44 GMT+0200 (GMT+02:00),1563307844887,11.232316666666666,rate_personality,9
793,Wie bewerten sie das folgende Merkmal?,6354,20,NA,NA,,1563308518826,80,weiblich,deutsch,Trifft gleichermaßen auf Menschen und Tiere zu,Trifft nur auf Menschen zu,NA,NA,Extrovertiertheit,1,Tue Jul 16 2019 22:10:44 GMT+0200 (GMT+02:00),1563307844887,11.232316666666666,rate_personality,10
793,,4997,20,Vertrauenswürdigkeit,White,,1563308518826,80,weiblich,deutsch,Gar nicht vertrauenswürdig,Sehr vertrauenswürdig,images/upright/Stimulus-Upright-White33.jpg,Upright,Wie vertrauenswürdig ist dieses Gesicht?,3,Tue Jul 16 2019 22:10:44 GMT+0200 (GMT+02:00),1563307844887,11.232316666666666,rate_face,1
793,,7248,20,Vertrauenswürdigkeit,Black,,1563308518826,80,weiblich,deutsch,Gar nicht vertrauenswürdig,Sehr vertrauenswürdig,images/upright/Stimulus-Upright-Black19.jpg,Upright,Wie vertrauenswürdig ist dieses Gesicht?,4,Tue Jul 16 2019 22:10:44 GMT+0200 (GMT+02:00),1563307844887,11.232316666666666,rate_face,2
793,,5528,20,Vertrauenswürdigkeit,White,,1563308518826,80,weiblich,deutsch,Gar nicht vertrauenswürdig,Sehr vertrauenswürdig,images/upright/Stimulus-Upright-White22.jpg,Upright,Wie vertrauenswürdig ist dieses Gesicht?,5,Tue Jul 16 2019 22:10:44 GMT+0200 (GMT+02:00),1563307844887,11.232316666666666,rate_face,3
793,,2943,20,Vertrauenswürdigkeit,Black,,1563308518826,80,weiblich,deutsch,Gar nicht vertrauenswürdig,Sehr vertrauenswürdig,images/upright/Stimulus-Upright-Black29.jpg,Upright,Wie vertrauenswürdig ist dieses Gesicht?,7,Tue Jul 16 2019 22:10:44 GMT+0200 (GMT+02:00),1563307844887,11.232316666666666,rate_face,4
