"trial_name","trial_number","response","RT","optionLeft","optionRight","QUD","question","picture","pictureFormat","color","category","startDate","startTime","age","gender","languages","comments","endTime","timeSpent","experiment_id",
"rate_personality","1","3","3347","Trifft gleichermaßen auf Menschen und Tiere zu","Trifft nur auf Menschen zu","Wie bewerten sie das folgende Merkmal?","Agressivität","NA","NA","NA","NA","Sat Jun 15 2019 11:33:46 GMT+0200 (Mitteleuropäische Sommerzeit)","1560591226625","22","weiblich","","","1560591525876","4.987516666666667","INSERT_A_NUMBER",
"rate_personality","2","8","2150","Trifft gleichermaßen auf Menschen und Tiere zu","Trifft nur auf Menschen zu","Wie bewerten sie das folgende Merkmal?","Höflichlichkeit","NA","NA","NA","NA","Sat Jun 15 2019 11:33:46 GMT+0200 (Mitteleuropäische Sommerzeit)","1560591226625","22","weiblich","","","1560591525876","4.987516666666667","INSERT_A_NUMBER",
"rate_personality","3","9","2576","Trifft gleichermaßen auf Menschen und Tiere zu","Trifft nur auf Menschen zu","Wie bewerten sie das folgende Merkmal?","Gewissenhaftigkeit","NA","NA","NA","NA","Sat Jun 15 2019 11:33:46 GMT+0200 (Mitteleuropäische Sommerzeit)","1560591226625","22","weiblich","","","1560591525876","4.987516666666667","INSERT_A_NUMBER",
"rate_personality","4","7","1507","Trifft gleichermaßen auf Menschen und Tiere zu","Trifft nur auf Menschen zu","Wie bewerten sie das folgende Merkmal?","Freundlichkeit","NA","NA","NA","NA","Sat Jun 15 2019 11:33:46 GMT+0200 (Mitteleuropäische Sommerzeit)","1560591226625","22","weiblich","","","1560591525876","4.987516666666667","INSERT_A_NUMBER",
"rate_personality","5","2","1549","Trifft gleichermaßen auf Menschen und Tiere zu","Trifft nur auf Menschen zu","Wie bewerten sie das folgende Merkmal?","Dominanz","NA","NA","NA","NA","Sat Jun 15 2019 11:33:46 GMT+0200 (Mitteleuropäische Sommerzeit)","1560591226625","22","weiblich","","","1560591525876","4.987516666666667","INSERT_A_NUMBER",
"rate_personality","6","4","2545","Trifft gleichermaßen auf Menschen und Tiere zu","Trifft nur auf Menschen zu","Wie bewerten sie das folgende Merkmal?","Sensibilität","NA","NA","NA","NA","Sat Jun 15 2019 11:33:46 GMT+0200 (Mitteleuropäische Sommerzeit)","1560591226625","22","weiblich","","","1560591525876","4.987516666666667","INSERT_A_NUMBER",
"rate_personality","7","2","2188","Trifft gleichermaßen auf Menschen und Tiere zu","Trifft nur auf Menschen zu","Wie bewerten sie das folgende Merkmal?","Selbstsicherheit","NA","NA","NA","NA","Sat Jun 15 2019 11:33:46 GMT+0200 (Mitteleuropäische Sommerzeit)","1560591226625","22","weiblich","","","1560591525876","4.987516666666667","INSERT_A_NUMBER",
"rate_personality","8","6","3743","Trifft gleichermaßen auf Menschen und Tiere zu","Trifft nur auf Menschen zu","Wie bewerten sie das folgende Merkmal?","Vertrauenswürdigkeit","NA","NA","NA","NA","Sat Jun 15 2019 11:33:46 GMT+0200 (Mitteleuropäische Sommerzeit)","1560591226625","22","weiblich","","","1560591525876","4.987516666666667","INSERT_A_NUMBER",
"rate_personality","9","2","3451","Trifft gleichermaßen auf Menschen und Tiere zu","Trifft nur auf Menschen zu","Wie bewerten sie das folgende Merkmal?","Extrovertiertheit","NA","NA","NA","NA","Sat Jun 15 2019 11:33:46 GMT+0200 (Mitteleuropäische Sommerzeit)","1560591226625","22","weiblich","","","1560591525876","4.987516666666667","INSERT_A_NUMBER",
"rate_personality","10","3","3528","Trifft gleichermaßen auf Menschen und Tiere zu","Trifft nur auf Menschen zu","Wie bewerten sie das folgende Merkmal?","Geduld","NA","NA","NA","NA","Sat Jun 15 2019 11:33:46 GMT+0200 (Mitteleuropäische Sommerzeit)","1560591226625","22","weiblich","","","1560591525876","4.987516666666667","INSERT_A_NUMBER",
"rate_face","1","5","11460","Gar nicht dominant","Sehr dominant","","Wie dominant ist dieses Gesicht?","images/upright/Stimulus-Upright-White7.jpg","Upright","White","Dominanz","Sat Jun 15 2019 11:33:46 GMT+0200 (Mitteleuropäische Sommerzeit)","1560591226625","22","weiblich","","","1560591525876","4.987516666666667","INSERT_A_NUMBER",
"rate_face","2","3","3340","Gar nicht dominant","Sehr dominant","","Wie dominant ist dieses Gesicht?","images/upright/Stimulus-Upright-Black2.jpg","Upright","Black","Dominanz","Sat Jun 15 2019 11:33:46 GMT+0200 (Mitteleuropäische Sommerzeit)","1560591226625","22","weiblich","","","1560591525876","4.987516666666667","INSERT_A_NUMBER",
"rate_face","3","1","1569","Gar nicht dominant","Sehr dominant","","Wie dominant ist dieses Gesicht?","images/upright/Stimulus-Upright-Black16.jpg","Upright","Black","Dominanz","Sat Jun 15 2019 11:33:46 GMT+0200 (Mitteleuropäische Sommerzeit)","1560591226625","22","weiblich","","","1560591525876","4.987516666666667","INSERT_A_NUMBER",
"rate_face","4","2","640","Gar nicht dominant","Sehr dominant","","Wie dominant ist dieses Gesicht?","images/upright/Stimulus-Upright-Black27.jpg","Upright","Black","Dominanz","Sat Jun 15 2019 11:33:46 GMT+0200 (Mitteleuropäische Sommerzeit)","1560591226625","22","weiblich","","","1560591525876","4.987516666666667","INSERT_A_NUMBER",
"rate_face","5","3","644","Gar nicht dominant","Sehr dominant","","Wie dominant ist dieses Gesicht?","images/upright/Stimulus-Upright-White5.jpg","Upright","White","Dominanz","Sat Jun 15 2019 11:33:46 GMT+0200 (Mitteleuropäische Sommerzeit)","1560591226625","22","weiblich","","","1560591525876","4.987516666666667","INSERT_A_NUMBER",
"rate_face","6","4","569","Gar nicht dominant","Sehr dominant","","Wie dominant ist dieses Gesicht?","images/upright/Stimulus-Upright-White19.jpg","Upright","White","Dominanz","Sat Jun 15 2019 11:33:46 GMT+0200 (Mitteleuropäische Sommerzeit)","1560591226625","22","weiblich","","","1560591525876","4.987516666666667","INSERT_A_NUMBER",
"rate_face","7","5","605","Gar nicht dominant","Sehr dominant","","Wie dominant ist dieses Gesicht?","images/upright/Stimulus-Upright-Black33.jpg","Upright","Black","Dominanz","Sat Jun 15 2019 11:33:46 GMT+0200 (Mitteleuropäische Sommerzeit)","1560591226625","22","weiblich","","","1560591525876","4.987516666666667","INSERT_A_NUMBER",
"rate_face","8","6","1216","Gar nicht dominant","Sehr dominant","","Wie dominant ist dieses Gesicht?","images/upright/Stimulus-Upright-White25.jpg","Upright","White","Dominanz","Sat Jun 15 2019 11:33:46 GMT+0200 (Mitteleuropäische Sommerzeit)","1560591226625","22","weiblich","","","1560591525876","4.987516666666667","INSERT_A_NUMBER",
"rate_face","9","7","588","Gar nicht dominant","Sehr dominant","","Wie dominant ist dieses Gesicht?","images/upright/Stimulus-Upright-White10.jpg","Upright","White","Dominanz","Sat Jun 15 2019 11:33:46 GMT+0200 (Mitteleuropäische Sommerzeit)","1560591226625","22","weiblich","","","1560591525876","4.987516666666667","INSERT_A_NUMBER",
"rate_face","10","1","1309","Gar nicht dominant","Sehr dominant","","Wie dominant ist dieses Gesicht?","images/upright/Stimulus-Upright-White20.jpg","Upright","White","Dominanz","Sat Jun 15 2019 11:33:46 GMT+0200 (Mitteleuropäische Sommerzeit)","1560591226625","22","weiblich","","","1560591525876","4.987516666666667","INSERT_A_NUMBER",
"rate_face","11","2","1126","Gar nicht dominant","Sehr dominant","","Wie dominant ist dieses Gesicht?","images/upright/Stimulus-Upright-Black25.jpg","Upright","Black","Dominanz","Sat Jun 15 2019 11:33:46 GMT+0200 (Mitteleuropäische Sommerzeit)","1560591226625","22","weiblich","","","1560591525876","4.987516666666667","INSERT_A_NUMBER",
"rate_face","12","3","633","Gar nicht dominant","Sehr dominant","","Wie dominant ist dieses Gesicht?","images/upright/Stimulus-Upright-White36.jpg","Upright","White","Dominanz","Sat Jun 15 2019 11:33:46 GMT+0200 (Mitteleuropäische Sommerzeit)","1560591226625","22","weiblich","","","1560591525876","4.987516666666667","INSERT_A_NUMBER",
"rate_face","13","4","720","Gar nicht dominant","Sehr dominant","","Wie dominant ist dieses Gesicht?","images/upright/Stimulus-Upright-Black3.jpg","Upright","Black","Dominanz","Sat Jun 15 2019 11:33:46 GMT+0200 (Mitteleuropäische Sommerzeit)","1560591226625","22","weiblich","","","1560591525876","4.987516666666667","INSERT_A_NUMBER",
"rate_face","14","5","623","Gar nicht dominant","Sehr dominant","","Wie dominant ist dieses Gesicht?","images/upright/Stimulus-Upright-White12.jpg","Upright","White","Dominanz","Sat Jun 15 2019 11:33:46 GMT+0200 (Mitteleuropäische Sommerzeit)","1560591226625","22","weiblich","","","1560591525876","4.987516666666667","INSERT_A_NUMBER",
"rate_face","15","6","658","Gar nicht dominant","Sehr dominant","","Wie dominant ist dieses Gesicht?","images/upright/Stimulus-Upright-White27.jpg","Upright","White","Dominanz","Sat Jun 15 2019 11:33:46 GMT+0200 (Mitteleuropäische Sommerzeit)","1560591226625","22","weiblich","","","1560591525876","4.987516666666667","INSERT_A_NUMBER",
"rate_face","16","7","571","Gar nicht dominant","Sehr dominant","","Wie dominant ist dieses Gesicht?","images/upright/Stimulus-Upright-White16.jpg","Upright","White","Dominanz","Sat Jun 15 2019 11:33:46 GMT+0200 (Mitteleuropäische Sommerzeit)","1560591226625","22","weiblich","","","1560591525876","4.987516666666667","INSERT_A_NUMBER",
"rate_face","17","1","1087","Gar nicht dominant","Sehr dominant","","Wie dominant ist dieses Gesicht?","images/upright/Stimulus-Upright-Black35.jpg","Upright","Black","Dominanz","Sat Jun 15 2019 11:33:46 GMT+0200 (Mitteleuropäische Sommerzeit)","1560591226625","22","weiblich","","","1560591525876","4.987516666666667","INSERT_A_NUMBER",
"rate_face","18","2","706","Gar nicht dominant","Sehr dominant","","Wie dominant ist dieses Gesicht?","images/upright/Stimulus-Upright-White11.jpg","Upright","White","Dominanz","Sat Jun 15 2019 11:33:46 GMT+0200 (Mitteleuropäische Sommerzeit)","1560591226625","22","weiblich","","","1560591525876","4.987516666666667","INSERT_A_NUMBER",
"rate_face","19","3","760","Gar nicht dominant","Sehr dominant","","Wie dominant ist dieses Gesicht?","images/upright/Stimulus-Upright-White23.jpg","Upright","White","Dominanz","Sat Jun 15 2019 11:33:46 GMT+0200 (Mitteleuropäische Sommerzeit)","1560591226625","22","weiblich","","","1560591525876","4.987516666666667","INSERT_A_NUMBER",
"rate_face","20","4","656","Gar nicht dominant","Sehr dominant","","Wie dominant ist dieses Gesicht?","images/upright/Stimulus-Upright-White6.jpg","Upright","White","Dominanz","Sat Jun 15 2019 11:33:46 GMT+0200 (Mitteleuropäische Sommerzeit)","1560591226625","22","weiblich","","","1560591525876","4.987516666666667","INSERT_A_NUMBER",
"rate_face","21","5","534","Gar nicht dominant","Sehr dominant","","Wie dominant ist dieses Gesicht?","images/upright/Stimulus-Upright-Black29.jpg","Upright","Black","Dominanz","Sat Jun 15 2019 11:33:46 GMT+0200 (Mitteleuropäische Sommerzeit)","1560591226625","22","weiblich","","","1560591525876","4.987516666666667","INSERT_A_NUMBER",
"rate_face","22","6","540","Gar nicht dominant","Sehr dominant","","Wie dominant ist dieses Gesicht?","images/upright/Stimulus-Upright-Black23.jpg","Upright","Black","Dominanz","Sat Jun 15 2019 11:33:46 GMT+0200 (Mitteleuropäische Sommerzeit)","1560591226625","22","weiblich","","","1560591525876","4.987516666666667","INSERT_A_NUMBER",
"rate_face","23","7","1705","Gar nicht dominant","Sehr dominant","","Wie dominant ist dieses Gesicht?","images/upright/Stimulus-Upright-Black12.jpg","Upright","Black","Dominanz","Sat Jun 15 2019 11:33:46 GMT+0200 (Mitteleuropäische Sommerzeit)","1560591226625","22","weiblich","","","1560591525876","4.987516666666667","INSERT_A_NUMBER",
"rate_face","24","5","2683","Gar nicht dominant","Sehr dominant","","Wie dominant ist dieses Gesicht?","images/upright/Stimulus-Upright-Black13.jpg","Upright","Black","Dominanz","Sat Jun 15 2019 11:33:46 GMT+0200 (Mitteleuropäische Sommerzeit)","1560591226625","22","weiblich","","","1560591525876","4.987516666666667","INSERT_A_NUMBER",
"rate_face","25","3","1956","Gar nicht dominant","Sehr dominant","","Wie dominant ist dieses Gesicht?","images/upright/Stimulus-Upright-White13.jpg","Upright","White","Dominanz","Sat Jun 15 2019 11:33:46 GMT+0200 (Mitteleuropäische Sommerzeit)","1560591226625","22","weiblich","","","1560591525876","4.987516666666667","INSERT_A_NUMBER",
"rate_face","26","2","2551","Gar nicht dominant","Sehr dominant","","Wie dominant ist dieses Gesicht?","images/upright/Stimulus-Upright-Black14.jpg","Upright","Black","Dominanz","Sat Jun 15 2019 11:33:46 GMT+0200 (Mitteleuropäische Sommerzeit)","1560591226625","22","weiblich","","","1560591525876","4.987516666666667","INSERT_A_NUMBER",
"rate_face","27","3","1431","Gar nicht dominant","Sehr dominant","","Wie dominant ist dieses Gesicht?","images/upright/Stimulus-Upright-White24.jpg","Upright","White","Dominanz","Sat Jun 15 2019 11:33:46 GMT+0200 (Mitteleuropäische Sommerzeit)","1560591226625","22","weiblich","","","1560591525876","4.987516666666667","INSERT_A_NUMBER",
"rate_face","28","3","1669","Gar nicht dominant","Sehr dominant","","Wie dominant ist dieses Gesicht?","images/upright/Stimulus-Upright-Black20.jpg","Upright","Black","Dominanz","Sat Jun 15 2019 11:33:46 GMT+0200 (Mitteleuropäische Sommerzeit)","1560591226625","22","weiblich","","","1560591525876","4.987516666666667","INSERT_A_NUMBER",
"rate_face","29","4","1665","Gar nicht dominant","Sehr dominant","","Wie dominant ist dieses Gesicht?","images/upright/Stimulus-Upright-Black24.jpg","Upright","Black","Dominanz","Sat Jun 15 2019 11:33:46 GMT+0200 (Mitteleuropäische Sommerzeit)","1560591226625","22","weiblich","","","1560591525876","4.987516666666667","INSERT_A_NUMBER",
"rate_face","30","6","2014","Gar nicht dominant","Sehr dominant","","Wie dominant ist dieses Gesicht?","images/upright/Stimulus-Upright-Black1.jpg","Upright","Black","Dominanz","Sat Jun 15 2019 11:33:46 GMT+0200 (Mitteleuropäische Sommerzeit)","1560591226625","22","weiblich","","","1560591525876","4.987516666666667","INSERT_A_NUMBER",
"rate_face","31","2","1748","Gar nicht dominant","Sehr dominant","","Wie dominant ist dieses Gesicht?","images/upright/Stimulus-Upright-Black32.jpg","Upright","Black","Dominanz","Sat Jun 15 2019 11:33:46 GMT+0200 (Mitteleuropäische Sommerzeit)","1560591226625","22","weiblich","","","1560591525876","4.987516666666667","INSERT_A_NUMBER",
"rate_face","32","7","2813","Gar nicht dominant","Sehr dominant","","Wie dominant ist dieses Gesicht?","images/upright/Stimulus-Upright-White29.jpg","Upright","White","Dominanz","Sat Jun 15 2019 11:33:46 GMT+0200 (Mitteleuropäische Sommerzeit)","1560591226625","22","weiblich","","","1560591525876","4.987516666666667","INSERT_A_NUMBER",
"rate_face","33","1","1735","Gar nicht dominant","Sehr dominant","","Wie dominant ist dieses Gesicht?","images/upright/Stimulus-Upright-Black26.jpg","Upright","Black","Dominanz","Sat Jun 15 2019 11:33:46 GMT+0200 (Mitteleuropäische Sommerzeit)","1560591226625","22","weiblich","","","1560591525876","4.987516666666667","INSERT_A_NUMBER",
"rate_face","34","5","2293","Gar nicht dominant","Sehr dominant","","Wie dominant ist dieses Gesicht?","images/upright/Stimulus-Upright-Black21.jpg","Upright","Black","Dominanz","Sat Jun 15 2019 11:33:46 GMT+0200 (Mitteleuropäische Sommerzeit)","1560591226625","22","weiblich","","","1560591525876","4.987516666666667","INSERT_A_NUMBER",
"rate_face","35","2","1829","Gar nicht dominant","Sehr dominant","","Wie dominant ist dieses Gesicht?","images/upright/Stimulus-Upright-Black4.jpg","Upright","Black","Dominanz","Sat Jun 15 2019 11:33:46 GMT+0200 (Mitteleuropäische Sommerzeit)","1560591226625","22","weiblich","","","1560591525876","4.987516666666667","INSERT_A_NUMBER",
"rate_face","36","3","1929","Gar nicht dominant","Sehr dominant","","Wie dominant ist dieses Gesicht?","images/upright/Stimulus-Upright-Black18.jpg","Upright","Black","Dominanz","Sat Jun 15 2019 11:33:46 GMT+0200 (Mitteleuropäische Sommerzeit)","1560591226625","22","weiblich","","","1560591525876","4.987516666666667","INSERT_A_NUMBER",
"rate_face","37","2","1366","Gar nicht dominant","Sehr dominant","","Wie dominant ist dieses Gesicht?","images/upright/Stimulus-Upright-White17.jpg","Upright","White","Dominanz","Sat Jun 15 2019 11:33:46 GMT+0200 (Mitteleuropäische Sommerzeit)","1560591226625","22","weiblich","","","1560591525876","4.987516666666667","INSERT_A_NUMBER",
"rate_face","38","2","1170","Gar nicht dominant","Sehr dominant","","Wie dominant ist dieses Gesicht?","images/upright/Stimulus-Upright-White8.jpg","Upright","White","Dominanz","Sat Jun 15 2019 11:33:46 GMT+0200 (Mitteleuropäische Sommerzeit)","1560591226625","22","weiblich","","","1560591525876","4.987516666666667","INSERT_A_NUMBER",
"rate_face","39","2","992","Gar nicht dominant","Sehr dominant","","Wie dominant ist dieses Gesicht?","images/upright/Stimulus-Upright-White3.jpg","Upright","White","Dominanz","Sat Jun 15 2019 11:33:46 GMT+0200 (Mitteleuropäische Sommerzeit)","1560591226625","22","weiblich","","","1560591525876","4.987516666666667","INSERT_A_NUMBER",
"rate_face","40","2","996","Gar nicht dominant","Sehr dominant","","Wie dominant ist dieses Gesicht?","images/upright/Stimulus-Upright-White32.jpg","Upright","White","Dominanz","Sat Jun 15 2019 11:33:46 GMT+0200 (Mitteleuropäische Sommerzeit)","1560591226625","22","weiblich","","","1560591525876","4.987516666666667","INSERT_A_NUMBER",
"rate_face","41","3","2770","Gar nicht dominant","Sehr dominant","","Wie dominant ist dieses Gesicht?","images/upright/Stimulus-Upright-Black8.jpg","Upright","Black","Dominanz","Sat Jun 15 2019 11:33:46 GMT+0200 (Mitteleuropäische Sommerzeit)","1560591226625","22","weiblich","","","1560591525876","4.987516666666667","INSERT_A_NUMBER",
"rate_face","42","1","2465","Gar nicht dominant","Sehr dominant","","Wie dominant ist dieses Gesicht?","images/upright/Stimulus-Upright-White21.jpg","Upright","White","Dominanz","Sat Jun 15 2019 11:33:46 GMT+0200 (Mitteleuropäische Sommerzeit)","1560591226625","22","weiblich","","","1560591525876","4.987516666666667","INSERT_A_NUMBER",
"rate_face","43","3","1434","Gar nicht dominant","Sehr dominant","","Wie dominant ist dieses Gesicht?","images/upright/Stimulus-Upright-White1.jpg","Upright","White","Dominanz","Sat Jun 15 2019 11:33:46 GMT+0200 (Mitteleuropäische Sommerzeit)","1560591226625","22","weiblich","","","1560591525876","4.987516666666667","INSERT_A_NUMBER",
"rate_face","44","4","1657","Gar nicht dominant","Sehr dominant","","Wie dominant ist dieses Gesicht?","images/upright/Stimulus-Upright-Black31.jpg","Upright","Black","Dominanz","Sat Jun 15 2019 11:33:46 GMT+0200 (Mitteleuropäische Sommerzeit)","1560591226625","22","weiblich","","","1560591525876","4.987516666666667","INSERT_A_NUMBER",
"rate_face","45","3","2004","Gar nicht dominant","Sehr dominant","","Wie dominant ist dieses Gesicht?","images/upright/Stimulus-Upright-White18.jpg","Upright","White","Dominanz","Sat Jun 15 2019 11:33:46 GMT+0200 (Mitteleuropäische Sommerzeit)","1560591226625","22","weiblich","","","1560591525876","4.987516666666667","INSERT_A_NUMBER",
"rate_face","46","4","1734","Gar nicht dominant","Sehr dominant","","Wie dominant ist dieses Gesicht?","images/upright/Stimulus-Upright-White22.jpg","Upright","White","Dominanz","Sat Jun 15 2019 11:33:46 GMT+0200 (Mitteleuropäische Sommerzeit)","1560591226625","22","weiblich","","","1560591525876","4.987516666666667","INSERT_A_NUMBER",
"rate_face","47","4","3134","Gar nicht dominant","Sehr dominant","","Wie dominant ist dieses Gesicht?","images/upright/Stimulus-Upright-Black19.jpg","Upright","Black","Dominanz","Sat Jun 15 2019 11:33:46 GMT+0200 (Mitteleuropäische Sommerzeit)","1560591226625","22","weiblich","","","1560591525876","4.987516666666667","INSERT_A_NUMBER",
"rate_face","48","6","1885","Gar nicht dominant","Sehr dominant","","Wie dominant ist dieses Gesicht?","images/upright/Stimulus-Upright-Black5.jpg","Upright","Black","Dominanz","Sat Jun 15 2019 11:33:46 GMT+0200 (Mitteleuropäische Sommerzeit)","1560591226625","22","weiblich","","","1560591525876","4.987516666666667","INSERT_A_NUMBER",
"rate_face","49","3","1616","Gar nicht dominant","Sehr dominant","","Wie dominant ist dieses Gesicht?","images/upright/Stimulus-Upright-White30.jpg","Upright","White","Dominanz","Sat Jun 15 2019 11:33:46 GMT+0200 (Mitteleuropäische Sommerzeit)","1560591226625","22","weiblich","","","1560591525876","4.987516666666667","INSERT_A_NUMBER",
"rate_face","50","3","1106","Gar nicht dominant","Sehr dominant","","Wie dominant ist dieses Gesicht?","images/upright/Stimulus-Upright-Black15.jpg","Upright","Black","Dominanz","Sat Jun 15 2019 11:33:46 GMT+0200 (Mitteleuropäische Sommerzeit)","1560591226625","22","weiblich","","","1560591525876","4.987516666666667","INSERT_A_NUMBER",
"rate_face","51","2","1666","Gar nicht dominant","Sehr dominant","","Wie dominant ist dieses Gesicht?","images/upright/Stimulus-Upright-White31.jpg","Upright","White","Dominanz","Sat Jun 15 2019 11:33:46 GMT+0200 (Mitteleuropäische Sommerzeit)","1560591226625","22","weiblich","","","1560591525876","4.987516666666667","INSERT_A_NUMBER",
"rate_face","52","2","1031","Gar nicht dominant","Sehr dominant","","Wie dominant ist dieses Gesicht?","images/upright/Stimulus-Upright-Black34.jpg","Upright","Black","Dominanz","Sat Jun 15 2019 11:33:46 GMT+0200 (Mitteleuropäische Sommerzeit)","1560591226625","22","weiblich","","","1560591525876","4.987516666666667","INSERT_A_NUMBER",
"rate_face","53","2","845","Gar nicht dominant","Sehr dominant","","Wie dominant ist dieses Gesicht?","images/upright/Stimulus-Upright-White9.jpg","Upright","White","Dominanz","Sat Jun 15 2019 11:33:46 GMT+0200 (Mitteleuropäische Sommerzeit)","1560591226625","22","weiblich","","","1560591525876","4.987516666666667","INSERT_A_NUMBER",
"rate_face","54","2","801","Gar nicht dominant","Sehr dominant","","Wie dominant ist dieses Gesicht?","images/upright/Stimulus-Upright-White14.jpg","Upright","White","Dominanz","Sat Jun 15 2019 11:33:46 GMT+0200 (Mitteleuropäische Sommerzeit)","1560591226625","22","weiblich","","","1560591525876","4.987516666666667","INSERT_A_NUMBER",
"rate_face","55","2","866","Gar nicht dominant","Sehr dominant","","Wie dominant ist dieses Gesicht?","images/upright/Stimulus-Upright-Black7.jpg","Upright","Black","Dominanz","Sat Jun 15 2019 11:33:46 GMT+0200 (Mitteleuropäische Sommerzeit)","1560591226625","22","weiblich","","","1560591525876","4.987516666666667","INSERT_A_NUMBER",
"rate_face","56","2","824","Gar nicht dominant","Sehr dominant","","Wie dominant ist dieses Gesicht?","images/upright/Stimulus-Upright-Black6.jpg","Upright","Black","Dominanz","Sat Jun 15 2019 11:33:46 GMT+0200 (Mitteleuropäische Sommerzeit)","1560591226625","22","weiblich","","","1560591525876","4.987516666666667","INSERT_A_NUMBER",
"rate_face","57","2","983","Gar nicht dominant","Sehr dominant","","Wie dominant ist dieses Gesicht?","images/upright/Stimulus-Upright-White15.jpg","Upright","White","Dominanz","Sat Jun 15 2019 11:33:46 GMT+0200 (Mitteleuropäische Sommerzeit)","1560591226625","22","weiblich","","","1560591525876","4.987516666666667","INSERT_A_NUMBER",
"rate_face","58","2","1160","Gar nicht dominant","Sehr dominant","","Wie dominant ist dieses Gesicht?","images/upright/Stimulus-Upright-Black10.jpg","Upright","Black","Dominanz","Sat Jun 15 2019 11:33:46 GMT+0200 (Mitteleuropäische Sommerzeit)","1560591226625","22","weiblich","","","1560591525876","4.987516666666667","INSERT_A_NUMBER",
"rate_face","59","2","855","Gar nicht dominant","Sehr dominant","","Wie dominant ist dieses Gesicht?","images/upright/Stimulus-Upright-Black36.jpg","Upright","Black","Dominanz","Sat Jun 15 2019 11:33:46 GMT+0200 (Mitteleuropäische Sommerzeit)","1560591226625","22","weiblich","","","1560591525876","4.987516666666667","INSERT_A_NUMBER",
"rate_face","60","2","847","Gar nicht dominant","Sehr dominant","","Wie dominant ist dieses Gesicht?","images/upright/Stimulus-Upright-White2.jpg","Upright","White","Dominanz","Sat Jun 15 2019 11:33:46 GMT+0200 (Mitteleuropäische Sommerzeit)","1560591226625","22","weiblich","","","1560591525876","4.987516666666667","INSERT_A_NUMBER",
"rate_face","61","2","1384","Gar nicht dominant","Sehr dominant","","Wie dominant ist dieses Gesicht?","images/upright/Stimulus-Upright-Black9.jpg","Upright","Black","Dominanz","Sat Jun 15 2019 11:33:46 GMT+0200 (Mitteleuropäische Sommerzeit)","1560591226625","22","weiblich","","","1560591525876","4.987516666666667","INSERT_A_NUMBER",
"rate_face","62","2","852","Gar nicht dominant","Sehr dominant","","Wie dominant ist dieses Gesicht?","images/upright/Stimulus-Upright-White26.jpg","Upright","White","Dominanz","Sat Jun 15 2019 11:33:46 GMT+0200 (Mitteleuropäische Sommerzeit)","1560591226625","22","weiblich","","","1560591525876","4.987516666666667","INSERT_A_NUMBER",
"rate_face","63","3","1900","Gar nicht dominant","Sehr dominant","","Wie dominant ist dieses Gesicht?","images/upright/Stimulus-Upright-White28.jpg","Upright","White","Dominanz","Sat Jun 15 2019 11:33:46 GMT+0200 (Mitteleuropäische Sommerzeit)","1560591226625","22","weiblich","","","1560591525876","4.987516666666667","INSERT_A_NUMBER",
"rate_face","64","1","1150","Gar nicht dominant","Sehr dominant","","Wie dominant ist dieses Gesicht?","images/upright/Stimulus-Upright-White34.jpg","Upright","White","Dominanz","Sat Jun 15 2019 11:33:46 GMT+0200 (Mitteleuropäische Sommerzeit)","1560591226625","22","weiblich","","","1560591525876","4.987516666666667","INSERT_A_NUMBER",
"rate_face","65","5","1899","Gar nicht dominant","Sehr dominant","","Wie dominant ist dieses Gesicht?","images/upright/Stimulus-Upright-Black28.jpg","Upright","Black","Dominanz","Sat Jun 15 2019 11:33:46 GMT+0200 (Mitteleuropäische Sommerzeit)","1560591226625","22","weiblich","","","1560591525876","4.987516666666667","INSERT_A_NUMBER",
"rate_face","66","6","1163","Gar nicht dominant","Sehr dominant","","Wie dominant ist dieses Gesicht?","images/upright/Stimulus-Upright-Black22.jpg","Upright","Black","Dominanz","Sat Jun 15 2019 11:33:46 GMT+0200 (Mitteleuropäische Sommerzeit)","1560591226625","22","weiblich","","","1560591525876","4.987516666666667","INSERT_A_NUMBER",
"rate_face","67","7","1229","Gar nicht dominant","Sehr dominant","","Wie dominant ist dieses Gesicht?","images/upright/Stimulus-Upright-Black11.jpg","Upright","Black","Dominanz","Sat Jun 15 2019 11:33:46 GMT+0200 (Mitteleuropäische Sommerzeit)","1560591226625","22","weiblich","","","1560591525876","4.987516666666667","INSERT_A_NUMBER",
"rate_face","68","6","2106","Gar nicht dominant","Sehr dominant","","Wie dominant ist dieses Gesicht?","images/upright/Stimulus-Upright-Black17.jpg","Upright","Black","Dominanz","Sat Jun 15 2019 11:33:46 GMT+0200 (Mitteleuropäische Sommerzeit)","1560591226625","22","weiblich","","","1560591525876","4.987516666666667","INSERT_A_NUMBER",
"rate_face","69","3","2402","Gar nicht dominant","Sehr dominant","","Wie dominant ist dieses Gesicht?","images/upright/Stimulus-Upright-White33.jpg","Upright","White","Dominanz","Sat Jun 15 2019 11:33:46 GMT+0200 (Mitteleuropäische Sommerzeit)","1560591226625","22","weiblich","","","1560591525876","4.987516666666667","INSERT_A_NUMBER",
"rate_face","70","6","1422","Gar nicht dominant","Sehr dominant","","Wie dominant ist dieses Gesicht?","images/upright/Stimulus-Upright-White4.jpg","Upright","White","Dominanz","Sat Jun 15 2019 11:33:46 GMT+0200 (Mitteleuropäische Sommerzeit)","1560591226625","22","weiblich","","","1560591525876","4.987516666666667","INSERT_A_NUMBER",
"rate_face","71","3","1571","Gar nicht dominant","Sehr dominant","","Wie dominant ist dieses Gesicht?","images/upright/Stimulus-Upright-White35.jpg","Upright","White","Dominanz","Sat Jun 15 2019 11:33:46 GMT+0200 (Mitteleuropäische Sommerzeit)","1560591226625","22","weiblich","","","1560591525876","4.987516666666667","INSERT_A_NUMBER",
"rate_face","72","6","1675","Gar nicht dominant","Sehr dominant","","Wie dominant ist dieses Gesicht?","images/upright/Stimulus-Upright-Black30.jpg","Upright","Black","Dominanz","Sat Jun 15 2019 11:33:46 GMT+0200 (Mitteleuropäische Sommerzeit)","1560591226625","22","weiblich","","","1560591525876","4.987516666666667","INSERT_A_NUMBER",
"rate_face","73","3","7246","Gar nicht dominant","Sehr dominant","","Wie dominant ist dieses Gesicht?","images/inverted/Stimulus-Inverted-White4.jpg","Inverted","White","Dominanz","Sat Jun 15 2019 11:33:46 GMT+0200 (Mitteleuropäische Sommerzeit)","1560591226625","22","weiblich","","","1560591525876","4.987516666666667","INSERT_A_NUMBER",
"rate_face","74","3","1323","Gar nicht dominant","Sehr dominant","","Wie dominant ist dieses Gesicht?","images/inverted/Stimulus-Inverted-White31.jpg","Inverted","White","Dominanz","Sat Jun 15 2019 11:33:46 GMT+0200 (Mitteleuropäische Sommerzeit)","1560591226625","22","weiblich","","","1560591525876","4.987516666666667","INSERT_A_NUMBER",
"rate_face","75","4","1366","Gar nicht dominant","Sehr dominant","","Wie dominant ist dieses Gesicht?","images/inverted/Stimulus-Inverted-White13.jpg","Inverted","White","Dominanz","Sat Jun 15 2019 11:33:46 GMT+0200 (Mitteleuropäische Sommerzeit)","1560591226625","22","weiblich","","","1560591525876","4.987516666666667","INSERT_A_NUMBER",
"rate_face","76","6","2045","Gar nicht dominant","Sehr dominant","","Wie dominant ist dieses Gesicht?","images/inverted/Stimulus-Inverted-White12.jpg","Inverted","White","Dominanz","Sat Jun 15 2019 11:33:46 GMT+0200 (Mitteleuropäische Sommerzeit)","1560591226625","22","weiblich","","","1560591525876","4.987516666666667","INSERT_A_NUMBER",
"rate_face","77","3","1699","Gar nicht dominant","Sehr dominant","","Wie dominant ist dieses Gesicht?","images/inverted/Stimulus-Inverted-Black35.jpg","Inverted","Black","Dominanz","Sat Jun 15 2019 11:33:46 GMT+0200 (Mitteleuropäische Sommerzeit)","1560591226625","22","weiblich","","","1560591525876","4.987516666666667","INSERT_A_NUMBER",
"rate_face","78","5","1520","Gar nicht dominant","Sehr dominant","","Wie dominant ist dieses Gesicht?","images/inverted/Stimulus-Inverted-Black34.jpg","Inverted","Black","Dominanz","Sat Jun 15 2019 11:33:46 GMT+0200 (Mitteleuropäische Sommerzeit)","1560591226625","22","weiblich","","","1560591525876","4.987516666666667","INSERT_A_NUMBER",
"rate_face","79","6","1426","Gar nicht dominant","Sehr dominant","","Wie dominant ist dieses Gesicht?","images/inverted/Stimulus-Inverted-Black2.jpg","Inverted","Black","Dominanz","Sat Jun 15 2019 11:33:46 GMT+0200 (Mitteleuropäische Sommerzeit)","1560591226625","22","weiblich","","","1560591525876","4.987516666666667","INSERT_A_NUMBER",
"rate_face","80","7","1384","Gar nicht dominant","Sehr dominant","","Wie dominant ist dieses Gesicht?","images/inverted/Stimulus-Inverted-Black8.jpg","Inverted","Black","Dominanz","Sat Jun 15 2019 11:33:46 GMT+0200 (Mitteleuropäische Sommerzeit)","1560591226625","22","weiblich","","","1560591525876","4.987516666666667","INSERT_A_NUMBER",
"rate_face","81","3","2214","Gar nicht dominant","Sehr dominant","","Wie dominant ist dieses Gesicht?","images/inverted/Stimulus-Inverted-White9.jpg","Inverted","White","Dominanz","Sat Jun 15 2019 11:33:46 GMT+0200 (Mitteleuropäische Sommerzeit)","1560591226625","22","weiblich","","","1560591525876","4.987516666666667","INSERT_A_NUMBER",
"rate_face","82","3","1434","Gar nicht dominant","Sehr dominant","","Wie dominant ist dieses Gesicht?","images/inverted/Stimulus-Inverted-White10.jpg","Inverted","White","Dominanz","Sat Jun 15 2019 11:33:46 GMT+0200 (Mitteleuropäische Sommerzeit)","1560591226625","22","weiblich","","","1560591525876","4.987516666666667","INSERT_A_NUMBER",
"rate_face","83","2","1518","Gar nicht dominant","Sehr dominant","","Wie dominant ist dieses Gesicht?","images/inverted/Stimulus-Inverted-White15.jpg","Inverted","White","Dominanz","Sat Jun 15 2019 11:33:46 GMT+0200 (Mitteleuropäische Sommerzeit)","1560591226625","22","weiblich","","","1560591525876","4.987516666666667","INSERT_A_NUMBER",
"rate_face","84","2","1046","Gar nicht dominant","Sehr dominant","","Wie dominant ist dieses Gesicht?","images/inverted/Stimulus-Inverted-White35.jpg","Inverted","White","Dominanz","Sat Jun 15 2019 11:33:46 GMT+0200 (Mitteleuropäische Sommerzeit)","1560591226625","22","weiblich","","","1560591525876","4.987516666666667","INSERT_A_NUMBER",
"rate_face","85","4","2094","Gar nicht dominant","Sehr dominant","","Wie dominant ist dieses Gesicht?","images/inverted/Stimulus-Inverted-Black15.jpg","Inverted","Black","Dominanz","Sat Jun 15 2019 11:33:46 GMT+0200 (Mitteleuropäische Sommerzeit)","1560591226625","22","weiblich","","","1560591525876","4.987516666666667","INSERT_A_NUMBER",
"rate_face","86","6","2060","Gar nicht dominant","Sehr dominant","","Wie dominant ist dieses Gesicht?","images/inverted/Stimulus-Inverted-White20.jpg","Inverted","White","Dominanz","Sat Jun 15 2019 11:33:46 GMT+0200 (Mitteleuropäische Sommerzeit)","1560591226625","22","weiblich","","","1560591525876","4.987516666666667","INSERT_A_NUMBER",
"rate_face","87","5","1324","Gar nicht dominant","Sehr dominant","","Wie dominant ist dieses Gesicht?","images/inverted/Stimulus-Inverted-Black21.jpg","Inverted","Black","Dominanz","Sat Jun 15 2019 11:33:46 GMT+0200 (Mitteleuropäische Sommerzeit)","1560591226625","22","weiblich","","","1560591525876","4.987516666666667","INSERT_A_NUMBER",
"rate_face","88","6","1572","Gar nicht dominant","Sehr dominant","","Wie dominant ist dieses Gesicht?","images/inverted/Stimulus-Inverted-White23.jpg","Inverted","White","Dominanz","Sat Jun 15 2019 11:33:46 GMT+0200 (Mitteleuropäische Sommerzeit)","1560591226625","22","weiblich","","","1560591525876","4.987516666666667","INSERT_A_NUMBER",
"rate_face","89","3","1688","Gar nicht dominant","Sehr dominant","","Wie dominant ist dieses Gesicht?","images/inverted/Stimulus-Inverted-Black16.jpg","Inverted","Black","Dominanz","Sat Jun 15 2019 11:33:46 GMT+0200 (Mitteleuropäische Sommerzeit)","1560591226625","22","weiblich","","","1560591525876","4.987516666666667","INSERT_A_NUMBER",
"rate_face","90","4","1697","Gar nicht dominant","Sehr dominant","","Wie dominant ist dieses Gesicht?","images/inverted/Stimulus-Inverted-Black9.jpg","Inverted","Black","Dominanz","Sat Jun 15 2019 11:33:46 GMT+0200 (Mitteleuropäische Sommerzeit)","1560591226625","22","weiblich","","","1560591525876","4.987516666666667","INSERT_A_NUMBER",
"rate_face","91","3","2165","Gar nicht dominant","Sehr dominant","","Wie dominant ist dieses Gesicht?","images/inverted/Stimulus-Inverted-White33.jpg","Inverted","White","Dominanz","Sat Jun 15 2019 11:33:46 GMT+0200 (Mitteleuropäische Sommerzeit)","1560591226625","22","weiblich","","","1560591525876","4.987516666666667","INSERT_A_NUMBER",
"rate_face","92","5","1277","Gar nicht dominant","Sehr dominant","","Wie dominant ist dieses Gesicht?","images/inverted/Stimulus-Inverted-Black30.jpg","Inverted","Black","Dominanz","Sat Jun 15 2019 11:33:46 GMT+0200 (Mitteleuropäische Sommerzeit)","1560591226625","22","weiblich","","","1560591525876","4.987516666666667","INSERT_A_NUMBER",
"rate_face","93","5","1322","Gar nicht dominant","Sehr dominant","","Wie dominant ist dieses Gesicht?","images/inverted/Stimulus-Inverted-Black29.jpg","Inverted","Black","Dominanz","Sat Jun 15 2019 11:33:46 GMT+0200 (Mitteleuropäische Sommerzeit)","1560591226625","22","weiblich","","","1560591525876","4.987516666666667","INSERT_A_NUMBER",
"rate_face","94","5","1635","Gar nicht dominant","Sehr dominant","","Wie dominant ist dieses Gesicht?","images/inverted/Stimulus-Inverted-Black1.jpg","Inverted","Black","Dominanz","Sat Jun 15 2019 11:33:46 GMT+0200 (Mitteleuropäische Sommerzeit)","1560591226625","22","weiblich","","","1560591525876","4.987516666666667","INSERT_A_NUMBER",
"rate_face","95","4","1311","Gar nicht dominant","Sehr dominant","","Wie dominant ist dieses Gesicht?","images/inverted/Stimulus-Inverted-White3.jpg","Inverted","White","Dominanz","Sat Jun 15 2019 11:33:46 GMT+0200 (Mitteleuropäische Sommerzeit)","1560591226625","22","weiblich","","","1560591525876","4.987516666666667","INSERT_A_NUMBER",
"rate_face","96","5","1891","Gar nicht dominant","Sehr dominant","","Wie dominant ist dieses Gesicht?","images/inverted/Stimulus-Inverted-Black5.jpg","Inverted","Black","Dominanz","Sat Jun 15 2019 11:33:46 GMT+0200 (Mitteleuropäische Sommerzeit)","1560591226625","22","weiblich","","","1560591525876","4.987516666666667","INSERT_A_NUMBER",
"rate_face","97","4","2071","Gar nicht dominant","Sehr dominant","","Wie dominant ist dieses Gesicht?","images/inverted/Stimulus-Inverted-Black13.jpg","Inverted","Black","Dominanz","Sat Jun 15 2019 11:33:46 GMT+0200 (Mitteleuropäische Sommerzeit)","1560591226625","22","weiblich","","","1560591525876","4.987516666666667","INSERT_A_NUMBER",
"rate_face","98","5","1609","Gar nicht dominant","Sehr dominant","","Wie dominant ist dieses Gesicht?","images/inverted/Stimulus-Inverted-Black3.jpg","Inverted","Black","Dominanz","Sat Jun 15 2019 11:33:46 GMT+0200 (Mitteleuropäische Sommerzeit)","1560591226625","22","weiblich","","","1560591525876","4.987516666666667","INSERT_A_NUMBER",
"rate_face","99","4","1456","Gar nicht dominant","Sehr dominant","","Wie dominant ist dieses Gesicht?","images/inverted/Stimulus-Inverted-Black18.jpg","Inverted","Black","Dominanz","Sat Jun 15 2019 11:33:46 GMT+0200 (Mitteleuropäische Sommerzeit)","1560591226625","22","weiblich","","","1560591525876","4.987516666666667","INSERT_A_NUMBER",
"rate_face","100","5","1394","Gar nicht dominant","Sehr dominant","","Wie dominant ist dieses Gesicht?","images/inverted/Stimulus-Inverted-Black11.jpg","Inverted","Black","Dominanz","Sat Jun 15 2019 11:33:46 GMT+0200 (Mitteleuropäische Sommerzeit)","1560591226625","22","weiblich","","","1560591525876","4.987516666666667","INSERT_A_NUMBER",
"rate_face","101","5","1462","Gar nicht dominant","Sehr dominant","","Wie dominant ist dieses Gesicht?","images/inverted/Stimulus-Inverted-Black20.jpg","Inverted","Black","Dominanz","Sat Jun 15 2019 11:33:46 GMT+0200 (Mitteleuropäische Sommerzeit)","1560591226625","22","weiblich","","","1560591525876","4.987516666666667","INSERT_A_NUMBER",
"rate_face","102","4","949","Gar nicht dominant","Sehr dominant","","Wie dominant ist dieses Gesicht?","images/inverted/Stimulus-Inverted-Black12.jpg","Inverted","Black","Dominanz","Sat Jun 15 2019 11:33:46 GMT+0200 (Mitteleuropäische Sommerzeit)","1560591226625","22","weiblich","","","1560591525876","4.987516666666667","INSERT_A_NUMBER",
"rate_face","103","6","1868","Gar nicht dominant","Sehr dominant","","Wie dominant ist dieses Gesicht?","images/inverted/Stimulus-Inverted-White16.jpg","Inverted","White","Dominanz","Sat Jun 15 2019 11:33:46 GMT+0200 (Mitteleuropäische Sommerzeit)","1560591226625","22","weiblich","","","1560591525876","4.987516666666667","INSERT_A_NUMBER",
"rate_face","104","5","1812","Gar nicht dominant","Sehr dominant","","Wie dominant ist dieses Gesicht?","images/inverted/Stimulus-Inverted-White11.jpg","Inverted","White","Dominanz","Sat Jun 15 2019 11:33:46 GMT+0200 (Mitteleuropäische Sommerzeit)","1560591226625","22","weiblich","","","1560591525876","4.987516666666667","INSERT_A_NUMBER",
"rate_face","105","2","2445","Gar nicht dominant","Sehr dominant","","Wie dominant ist dieses Gesicht?","images/inverted/Stimulus-Inverted-White29.jpg","Inverted","White","Dominanz","Sat Jun 15 2019 11:33:46 GMT+0200 (Mitteleuropäische Sommerzeit)","1560591226625","22","weiblich","","","1560591525876","4.987516666666667","INSERT_A_NUMBER",
"rate_face","106","4","1694","Gar nicht dominant","Sehr dominant","","Wie dominant ist dieses Gesicht?","images/inverted/Stimulus-Inverted-White34.jpg","Inverted","White","Dominanz","Sat Jun 15 2019 11:33:46 GMT+0200 (Mitteleuropäische Sommerzeit)","1560591226625","22","weiblich","","","1560591525876","4.987516666666667","INSERT_A_NUMBER",
"rate_face","107","5","1576","Gar nicht dominant","Sehr dominant","","Wie dominant ist dieses Gesicht?","images/inverted/Stimulus-Inverted-Black23.jpg","Inverted","Black","Dominanz","Sat Jun 15 2019 11:33:46 GMT+0200 (Mitteleuropäische Sommerzeit)","1560591226625","22","weiblich","","","1560591525876","4.987516666666667","INSERT_A_NUMBER",
"rate_face","108","4","2753","Gar nicht dominant","Sehr dominant","","Wie dominant ist dieses Gesicht?","images/inverted/Stimulus-Inverted-Black7.jpg","Inverted","Black","Dominanz","Sat Jun 15 2019 11:33:46 GMT+0200 (Mitteleuropäische Sommerzeit)","1560591226625","22","weiblich","","","1560591525876","4.987516666666667","INSERT_A_NUMBER",
"rate_face","109","5","1150","Gar nicht dominant","Sehr dominant","","Wie dominant ist dieses Gesicht?","images/inverted/Stimulus-Inverted-Black6.jpg","Inverted","Black","Dominanz","Sat Jun 15 2019 11:33:46 GMT+0200 (Mitteleuropäische Sommerzeit)","1560591226625","22","weiblich","","","1560591525876","4.987516666666667","INSERT_A_NUMBER",
"rate_face","110","3","1621","Gar nicht dominant","Sehr dominant","","Wie dominant ist dieses Gesicht?","images/inverted/Stimulus-Inverted-White30.jpg","Inverted","White","Dominanz","Sat Jun 15 2019 11:33:46 GMT+0200 (Mitteleuropäische Sommerzeit)","1560591226625","22","weiblich","","","1560591525876","4.987516666666667","INSERT_A_NUMBER",
"rate_face","111","4","1127","Gar nicht dominant","Sehr dominant","","Wie dominant ist dieses Gesicht?","images/inverted/Stimulus-Inverted-Black36.jpg","Inverted","Black","Dominanz","Sat Jun 15 2019 11:33:46 GMT+0200 (Mitteleuropäische Sommerzeit)","1560591226625","22","weiblich","","","1560591525876","4.987516666666667","INSERT_A_NUMBER",
"rate_face","112","3","1352","Gar nicht dominant","Sehr dominant","","Wie dominant ist dieses Gesicht?","images/inverted/Stimulus-Inverted-White5.jpg","Inverted","White","Dominanz","Sat Jun 15 2019 11:33:46 GMT+0200 (Mitteleuropäische Sommerzeit)","1560591226625","22","weiblich","","","1560591525876","4.987516666666667","INSERT_A_NUMBER",
"rate_face","113","6","2371","Gar nicht dominant","Sehr dominant","","Wie dominant ist dieses Gesicht?","images/inverted/Stimulus-Inverted-White36.jpg","Inverted","White","Dominanz","Sat Jun 15 2019 11:33:46 GMT+0200 (Mitteleuropäische Sommerzeit)","1560591226625","22","weiblich","","","1560591525876","4.987516666666667","INSERT_A_NUMBER",
"rate_face","114","4","1801","Gar nicht dominant","Sehr dominant","","Wie dominant ist dieses Gesicht?","images/inverted/Stimulus-Inverted-White2.jpg","Inverted","White","Dominanz","Sat Jun 15 2019 11:33:46 GMT+0200 (Mitteleuropäische Sommerzeit)","1560591226625","22","weiblich","","","1560591525876","4.987516666666667","INSERT_A_NUMBER",
"rate_face","115","3","3173","Gar nicht dominant","Sehr dominant","","Wie dominant ist dieses Gesicht?","images/inverted/Stimulus-Inverted-Black27.jpg","Inverted","Black","Dominanz","Sat Jun 15 2019 11:33:46 GMT+0200 (Mitteleuropäische Sommerzeit)","1560591226625","22","weiblich","","","1560591525876","4.987516666666667","INSERT_A_NUMBER",
"rate_face","116","6","3295","Gar nicht dominant","Sehr dominant","","Wie dominant ist dieses Gesicht?","images/inverted/Stimulus-Inverted-White26.jpg","Inverted","White","Dominanz","Sat Jun 15 2019 11:33:46 GMT+0200 (Mitteleuropäische Sommerzeit)","1560591226625","22","weiblich","","","1560591525876","4.987516666666667","INSERT_A_NUMBER",
"rate_face","117","4","1965","Gar nicht dominant","Sehr dominant","","Wie dominant ist dieses Gesicht?","images/inverted/Stimulus-Inverted-Black26.jpg","Inverted","Black","Dominanz","Sat Jun 15 2019 11:33:46 GMT+0200 (Mitteleuropäische Sommerzeit)","1560591226625","22","weiblich","","","1560591525876","4.987516666666667","INSERT_A_NUMBER",
"rate_face","118","3","1721","Gar nicht dominant","Sehr dominant","","Wie dominant ist dieses Gesicht?","images/inverted/Stimulus-Inverted-White28.jpg","Inverted","White","Dominanz","Sat Jun 15 2019 11:33:46 GMT+0200 (Mitteleuropäische Sommerzeit)","1560591226625","22","weiblich","","","1560591525876","4.987516666666667","INSERT_A_NUMBER",
"rate_face","119","3","4542","Gar nicht dominant","Sehr dominant","","Wie dominant ist dieses Gesicht?","images/inverted/Stimulus-Inverted-Black31.jpg","Inverted","Black","Dominanz","Sat Jun 15 2019 11:33:46 GMT+0200 (Mitteleuropäische Sommerzeit)","1560591226625","22","weiblich","","","1560591525876","4.987516666666667","INSERT_A_NUMBER",
"rate_face","120","2","2243","Gar nicht dominant","Sehr dominant","","Wie dominant ist dieses Gesicht?","images/inverted/Stimulus-Inverted-White27.jpg","Inverted","White","Dominanz","Sat Jun 15 2019 11:33:46 GMT+0200 (Mitteleuropäische Sommerzeit)","1560591226625","22","weiblich","","","1560591525876","4.987516666666667","INSERT_A_NUMBER",
"rate_face","121","3","1522","Gar nicht dominant","Sehr dominant","","Wie dominant ist dieses Gesicht?","images/inverted/Stimulus-Inverted-White1.jpg","Inverted","White","Dominanz","Sat Jun 15 2019 11:33:46 GMT+0200 (Mitteleuropäische Sommerzeit)","1560591226625","22","weiblich","","","1560591525876","4.987516666666667","INSERT_A_NUMBER",
"rate_face","122","3","1289","Gar nicht dominant","Sehr dominant","","Wie dominant ist dieses Gesicht?","images/inverted/Stimulus-Inverted-White7.jpg","Inverted","White","Dominanz","Sat Jun 15 2019 11:33:46 GMT+0200 (Mitteleuropäische Sommerzeit)","1560591226625","22","weiblich","","","1560591525876","4.987516666666667","INSERT_A_NUMBER",
"rate_face","123","6","2303","Gar nicht dominant","Sehr dominant","","Wie dominant ist dieses Gesicht?","images/inverted/Stimulus-Inverted-Black24.jpg","Inverted","Black","Dominanz","Sat Jun 15 2019 11:33:46 GMT+0200 (Mitteleuropäische Sommerzeit)","1560591226625","22","weiblich","","","1560591525876","4.987516666666667","INSERT_A_NUMBER",
"rate_face","124","4","1948","Gar nicht dominant","Sehr dominant","","Wie dominant ist dieses Gesicht?","images/inverted/Stimulus-Inverted-Black25.jpg","Inverted","Black","Dominanz","Sat Jun 15 2019 11:33:46 GMT+0200 (Mitteleuropäische Sommerzeit)","1560591226625","22","weiblich","","","1560591525876","4.987516666666667","INSERT_A_NUMBER",
"rate_face","125","3","2986","Gar nicht dominant","Sehr dominant","","Wie dominant ist dieses Gesicht?","images/inverted/Stimulus-Inverted-White8.jpg","Inverted","White","Dominanz","Sat Jun 15 2019 11:33:46 GMT+0200 (Mitteleuropäische Sommerzeit)","1560591226625","22","weiblich","","","1560591525876","4.987516666666667","INSERT_A_NUMBER",
"rate_face","126","3","1083","Gar nicht dominant","Sehr dominant","","Wie dominant ist dieses Gesicht?","images/inverted/Stimulus-Inverted-White14.jpg","Inverted","White","Dominanz","Sat Jun 15 2019 11:33:46 GMT+0200 (Mitteleuropäische Sommerzeit)","1560591226625","22","weiblich","","","1560591525876","4.987516666666667","INSERT_A_NUMBER",
"rate_face","127","2","2027","Gar nicht dominant","Sehr dominant","","Wie dominant ist dieses Gesicht?","images/inverted/Stimulus-Inverted-Black4.jpg","Inverted","Black","Dominanz","Sat Jun 15 2019 11:33:46 GMT+0200 (Mitteleuropäische Sommerzeit)","1560591226625","22","weiblich","","","1560591525876","4.987516666666667","INSERT_A_NUMBER",
"rate_face","128","4","1171","Gar nicht dominant","Sehr dominant","","Wie dominant ist dieses Gesicht?","images/inverted/Stimulus-Inverted-White32.jpg","Inverted","White","Dominanz","Sat Jun 15 2019 11:33:46 GMT+0200 (Mitteleuropäische Sommerzeit)","1560591226625","22","weiblich","","","1560591525876","4.987516666666667","INSERT_A_NUMBER",
"rate_face","129","3","1503","Gar nicht dominant","Sehr dominant","","Wie dominant ist dieses Gesicht?","images/inverted/Stimulus-Inverted-Black19.jpg","Inverted","Black","Dominanz","Sat Jun 15 2019 11:33:46 GMT+0200 (Mitteleuropäische Sommerzeit)","1560591226625","22","weiblich","","","1560591525876","4.987516666666667","INSERT_A_NUMBER",
"rate_face","130","5","2373","Gar nicht dominant","Sehr dominant","","Wie dominant ist dieses Gesicht?","images/inverted/Stimulus-Inverted-Black17.jpg","Inverted","Black","Dominanz","Sat Jun 15 2019 11:33:46 GMT+0200 (Mitteleuropäische Sommerzeit)","1560591226625","22","weiblich","","","1560591525876","4.987516666666667","INSERT_A_NUMBER",
"rate_face","131","6","2469","Gar nicht dominant","Sehr dominant","","Wie dominant ist dieses Gesicht?","images/inverted/Stimulus-Inverted-Black32.jpg","Inverted","Black","Dominanz","Sat Jun 15 2019 11:33:46 GMT+0200 (Mitteleuropäische Sommerzeit)","1560591226625","22","weiblich","","","1560591525876","4.987516666666667","INSERT_A_NUMBER",
"rate_face","132","3","5987","Gar nicht dominant","Sehr dominant","","Wie dominant ist dieses Gesicht?","images/inverted/Stimulus-Inverted-Black22.jpg","Inverted","Black","Dominanz","Sat Jun 15 2019 11:33:46 GMT+0200 (Mitteleuropäische Sommerzeit)","1560591226625","22","weiblich","","","1560591525876","4.987516666666667","INSERT_A_NUMBER",
"rate_face","133","7","2468","Gar nicht dominant","Sehr dominant","","Wie dominant ist dieses Gesicht?","images/inverted/Stimulus-Inverted-Black28.jpg","Inverted","Black","Dominanz","Sat Jun 15 2019 11:33:46 GMT+0200 (Mitteleuropäische Sommerzeit)","1560591226625","22","weiblich","","","1560591525876","4.987516666666667","INSERT_A_NUMBER",
"rate_face","134","3","1845","Gar nicht dominant","Sehr dominant","","Wie dominant ist dieses Gesicht?","images/inverted/Stimulus-Inverted-White18.jpg","Inverted","White","Dominanz","Sat Jun 15 2019 11:33:46 GMT+0200 (Mitteleuropäische Sommerzeit)","1560591226625","22","weiblich","","","1560591525876","4.987516666666667","INSERT_A_NUMBER",
"rate_face","135","3","1636","Gar nicht dominant","Sehr dominant","","Wie dominant ist dieses Gesicht?","images/inverted/Stimulus-Inverted-Black14.jpg","Inverted","Black","Dominanz","Sat Jun 15 2019 11:33:46 GMT+0200 (Mitteleuropäische Sommerzeit)","1560591226625","22","weiblich","","","1560591525876","4.987516666666667","INSERT_A_NUMBER",
"rate_face","136","3","2490","Gar nicht dominant","Sehr dominant","","Wie dominant ist dieses Gesicht?","images/inverted/Stimulus-Inverted-White17.jpg","Inverted","White","Dominanz","Sat Jun 15 2019 11:33:46 GMT+0200 (Mitteleuropäische Sommerzeit)","1560591226625","22","weiblich","","","1560591525876","4.987516666666667","INSERT_A_NUMBER",
"rate_face","137","4","1158","Gar nicht dominant","Sehr dominant","","Wie dominant ist dieses Gesicht?","images/inverted/Stimulus-Inverted-White22.jpg","Inverted","White","Dominanz","Sat Jun 15 2019 11:33:46 GMT+0200 (Mitteleuropäische Sommerzeit)","1560591226625","22","weiblich","","","1560591525876","4.987516666666667","INSERT_A_NUMBER",
"rate_face","138","2","3364","Gar nicht dominant","Sehr dominant","","Wie dominant ist dieses Gesicht?","images/inverted/Stimulus-Inverted-Black10.jpg","Inverted","Black","Dominanz","Sat Jun 15 2019 11:33:46 GMT+0200 (Mitteleuropäische Sommerzeit)","1560591226625","22","weiblich","","","1560591525876","4.987516666666667","INSERT_A_NUMBER",
"rate_face","139","3","1799","Gar nicht dominant","Sehr dominant","","Wie dominant ist dieses Gesicht?","images/inverted/Stimulus-Inverted-White24.jpg","Inverted","White","Dominanz","Sat Jun 15 2019 11:33:46 GMT+0200 (Mitteleuropäische Sommerzeit)","1560591226625","22","weiblich","","","1560591525876","4.987516666666667","INSERT_A_NUMBER",
"rate_face","140","3","3368","Gar nicht dominant","Sehr dominant","","Wie dominant ist dieses Gesicht?","images/inverted/Stimulus-Inverted-White21.jpg","Inverted","White","Dominanz","Sat Jun 15 2019 11:33:46 GMT+0200 (Mitteleuropäische Sommerzeit)","1560591226625","22","weiblich","","","1560591525876","4.987516666666667","INSERT_A_NUMBER",
"rate_face","141","2","1655","Gar nicht dominant","Sehr dominant","","Wie dominant ist dieses Gesicht?","images/inverted/Stimulus-Inverted-White6.jpg","Inverted","White","Dominanz","Sat Jun 15 2019 11:33:46 GMT+0200 (Mitteleuropäische Sommerzeit)","1560591226625","22","weiblich","","","1560591525876","4.987516666666667","INSERT_A_NUMBER",
"rate_face","142","3","2695","Gar nicht dominant","Sehr dominant","","Wie dominant ist dieses Gesicht?","images/inverted/Stimulus-Inverted-Black33.jpg","Inverted","Black","Dominanz","Sat Jun 15 2019 11:33:46 GMT+0200 (Mitteleuropäische Sommerzeit)","1560591226625","22","weiblich","","","1560591525876","4.987516666666667","INSERT_A_NUMBER",
"rate_face","143","3","1300","Gar nicht dominant","Sehr dominant","","Wie dominant ist dieses Gesicht?","images/inverted/Stimulus-Inverted-White25.jpg","Inverted","White","Dominanz","Sat Jun 15 2019 11:33:46 GMT+0200 (Mitteleuropäische Sommerzeit)","1560591226625","22","weiblich","","","1560591525876","4.987516666666667","INSERT_A_NUMBER",
"rate_face","144","1","1641","Gar nicht dominant","Sehr dominant","","Wie dominant ist dieses Gesicht?","images/inverted/Stimulus-Inverted-White19.jpg","Inverted","White","Dominanz","Sat Jun 15 2019 11:33:46 GMT+0200 (Mitteleuropäische Sommerzeit)","1560591226625","22","weiblich","","","1560591525876","4.987516666666667","INSERT_A_NUMBER",
