"trial_name","trial_number","response","RT","optionLeft","optionRight","QUD","question","picture","pictureFormat","color","category","startDate","startTime","age","gender","languages","comments","endTime","timeSpent","experiment_id",
"rate_personality","1","4","7598","Trifft gleichermaßen auf Menschen und Tiere zu","Trifft nur auf Menschen zu","Wie bewerten sie das folgende Merkmal?","Freundlichkeit","NA","NA","NA","NA","Sat Jun 15 2019 14:16:05 GMT+0200 (Mitteleuropäische Sommerzeit)","1560600965921","21","weiblich","Deutsch","","1560601487182","8.687683333333334","INSERT_A_NUMBER",
"rate_personality","2","3","10138","Trifft gleichermaßen auf Menschen und Tiere zu","Trifft nur auf Menschen zu","Wie bewerten sie das folgende Merkmal?","Extrovertiertheit","NA","NA","NA","NA","Sat Jun 15 2019 14:16:05 GMT+0200 (Mitteleuropäische Sommerzeit)","1560600965921","21","weiblich","Deutsch","","1560601487182","8.687683333333334","INSERT_A_NUMBER",
"rate_personality","3","1","4220","Trifft gleichermaßen auf Menschen und Tiere zu","Trifft nur auf Menschen zu","Wie bewerten sie das folgende Merkmal?","Selbstsicherheit","NA","NA","NA","NA","Sat Jun 15 2019 14:16:05 GMT+0200 (Mitteleuropäische Sommerzeit)","1560600965921","21","weiblich","Deutsch","","1560601487182","8.687683333333334","INSERT_A_NUMBER",
"rate_personality","4","1","2890","Trifft gleichermaßen auf Menschen und Tiere zu","Trifft nur auf Menschen zu","Wie bewerten sie das folgende Merkmal?","Agressivität","NA","NA","NA","NA","Sat Jun 15 2019 14:16:05 GMT+0200 (Mitteleuropäische Sommerzeit)","1560600965921","21","weiblich","Deutsch","","1560601487182","8.687683333333334","INSERT_A_NUMBER",
"rate_personality","5","2","2492","Trifft gleichermaßen auf Menschen und Tiere zu","Trifft nur auf Menschen zu","Wie bewerten sie das folgende Merkmal?","Dominanz","NA","NA","NA","NA","Sat Jun 15 2019 14:16:05 GMT+0200 (Mitteleuropäische Sommerzeit)","1560600965921","21","weiblich","Deutsch","","1560601487182","8.687683333333334","INSERT_A_NUMBER",
"rate_personality","6","4","2801","Trifft gleichermaßen auf Menschen und Tiere zu","Trifft nur auf Menschen zu","Wie bewerten sie das folgende Merkmal?","Sensibilität","NA","NA","NA","NA","Sat Jun 15 2019 14:16:05 GMT+0200 (Mitteleuropäische Sommerzeit)","1560600965921","21","weiblich","Deutsch","","1560601487182","8.687683333333334","INSERT_A_NUMBER",
"rate_personality","7","7","5850","Trifft gleichermaßen auf Menschen und Tiere zu","Trifft nur auf Menschen zu","Wie bewerten sie das folgende Merkmal?","Geduld","NA","NA","NA","NA","Sat Jun 15 2019 14:16:05 GMT+0200 (Mitteleuropäische Sommerzeit)","1560600965921","21","weiblich","Deutsch","","1560601487182","8.687683333333334","INSERT_A_NUMBER",
"rate_personality","8","7","3134","Trifft gleichermaßen auf Menschen und Tiere zu","Trifft nur auf Menschen zu","Wie bewerten sie das folgende Merkmal?","Gewissenhaftigkeit","NA","NA","NA","NA","Sat Jun 15 2019 14:16:05 GMT+0200 (Mitteleuropäische Sommerzeit)","1560600965921","21","weiblich","Deutsch","","1560601487182","8.687683333333334","INSERT_A_NUMBER",
"rate_personality","9","3","3417","Trifft gleichermaßen auf Menschen und Tiere zu","Trifft nur auf Menschen zu","Wie bewerten sie das folgende Merkmal?","Vertrauenswürdigkeit","NA","NA","NA","NA","Sat Jun 15 2019 14:16:05 GMT+0200 (Mitteleuropäische Sommerzeit)","1560600965921","21","weiblich","Deutsch","","1560601487182","8.687683333333334","INSERT_A_NUMBER",
"rate_personality","10","8","3199","Trifft gleichermaßen auf Menschen und Tiere zu","Trifft nur auf Menschen zu","Wie bewerten sie das folgende Merkmal?","Höflichlichkeit","NA","NA","NA","NA","Sat Jun 15 2019 14:16:05 GMT+0200 (Mitteleuropäische Sommerzeit)","1560600965921","21","weiblich","Deutsch","","1560601487182","8.687683333333334","INSERT_A_NUMBER",
"rate_face","1","3","5924","Gar nicht vertrauenswürdig","Sehr vertrauenswürdig","","Wie vertrauenswürdig ist dieses Gesicht?","images/upright/Stimulus-Upright-Black35.jpg","Upright","Black","Vertrauenswürdigkeit","Sat Jun 15 2019 14:16:05 GMT+0200 (Mitteleuropäische Sommerzeit)","1560600965921","21","weiblich","Deutsch","","1560601487182","8.687683333333334","INSERT_A_NUMBER",
"rate_face","2","5","3264","Gar nicht vertrauenswürdig","Sehr vertrauenswürdig","","Wie vertrauenswürdig ist dieses Gesicht?","images/upright/Stimulus-Upright-Black24.jpg","Upright","Black","Vertrauenswürdigkeit","Sat Jun 15 2019 14:16:05 GMT+0200 (Mitteleuropäische Sommerzeit)","1560600965921","21","weiblich","Deutsch","","1560601487182","8.687683333333334","INSERT_A_NUMBER",
"rate_face","3","4","3329","Gar nicht vertrauenswürdig","Sehr vertrauenswürdig","","Wie vertrauenswürdig ist dieses Gesicht?","images/upright/Stimulus-Upright-Black33.jpg","Upright","Black","Vertrauenswürdigkeit","Sat Jun 15 2019 14:16:05 GMT+0200 (Mitteleuropäische Sommerzeit)","1560600965921","21","weiblich","Deutsch","","1560601487182","8.687683333333334","INSERT_A_NUMBER",
"rate_face","4","3","3489","Gar nicht vertrauenswürdig","Sehr vertrauenswürdig","","Wie vertrauenswürdig ist dieses Gesicht?","images/upright/Stimulus-Upright-White4.jpg","Upright","White","Vertrauenswürdigkeit","Sat Jun 15 2019 14:16:05 GMT+0200 (Mitteleuropäische Sommerzeit)","1560600965921","21","weiblich","Deutsch","","1560601487182","8.687683333333334","INSERT_A_NUMBER",
"rate_face","5","3","2154","Gar nicht vertrauenswürdig","Sehr vertrauenswürdig","","Wie vertrauenswürdig ist dieses Gesicht?","images/upright/Stimulus-Upright-Black4.jpg","Upright","Black","Vertrauenswürdigkeit","Sat Jun 15 2019 14:16:05 GMT+0200 (Mitteleuropäische Sommerzeit)","1560600965921","21","weiblich","Deutsch","","1560601487182","8.687683333333334","INSERT_A_NUMBER",
"rate_face","6","6","2469","Gar nicht vertrauenswürdig","Sehr vertrauenswürdig","","Wie vertrauenswürdig ist dieses Gesicht?","images/upright/Stimulus-Upright-White3.jpg","Upright","White","Vertrauenswürdigkeit","Sat Jun 15 2019 14:16:05 GMT+0200 (Mitteleuropäische Sommerzeit)","1560600965921","21","weiblich","Deutsch","","1560601487182","8.687683333333334","INSERT_A_NUMBER",
"rate_face","7","3","3609","Gar nicht vertrauenswürdig","Sehr vertrauenswürdig","","Wie vertrauenswürdig ist dieses Gesicht?","images/upright/Stimulus-Upright-White15.jpg","Upright","White","Vertrauenswürdigkeit","Sat Jun 15 2019 14:16:05 GMT+0200 (Mitteleuropäische Sommerzeit)","1560600965921","21","weiblich","Deutsch","","1560601487182","8.687683333333334","INSERT_A_NUMBER",
"rate_face","8","6","5543","Gar nicht vertrauenswürdig","Sehr vertrauenswürdig","","Wie vertrauenswürdig ist dieses Gesicht?","images/upright/Stimulus-Upright-Black16.jpg","Upright","Black","Vertrauenswürdigkeit","Sat Jun 15 2019 14:16:05 GMT+0200 (Mitteleuropäische Sommerzeit)","1560600965921","21","weiblich","Deutsch","","1560601487182","8.687683333333334","INSERT_A_NUMBER",
"rate_face","9","2","3947","Gar nicht vertrauenswürdig","Sehr vertrauenswürdig","","Wie vertrauenswürdig ist dieses Gesicht?","images/upright/Stimulus-Upright-White1.jpg","Upright","White","Vertrauenswürdigkeit","Sat Jun 15 2019 14:16:05 GMT+0200 (Mitteleuropäische Sommerzeit)","1560600965921","21","weiblich","Deutsch","","1560601487182","8.687683333333334","INSERT_A_NUMBER",
"rate_face","10","5","5035","Gar nicht vertrauenswürdig","Sehr vertrauenswürdig","","Wie vertrauenswürdig ist dieses Gesicht?","images/upright/Stimulus-Upright-White33.jpg","Upright","White","Vertrauenswürdigkeit","Sat Jun 15 2019 14:16:05 GMT+0200 (Mitteleuropäische Sommerzeit)","1560600965921","21","weiblich","Deutsch","","1560601487182","8.687683333333334","INSERT_A_NUMBER",
"rate_face","11","6","2367","Gar nicht vertrauenswürdig","Sehr vertrauenswürdig","","Wie vertrauenswürdig ist dieses Gesicht?","images/upright/Stimulus-Upright-White21.jpg","Upright","White","Vertrauenswürdigkeit","Sat Jun 15 2019 14:16:05 GMT+0200 (Mitteleuropäische Sommerzeit)","1560600965921","21","weiblich","Deutsch","","1560601487182","8.687683333333334","INSERT_A_NUMBER",
"rate_face","12","2","2749","Gar nicht vertrauenswürdig","Sehr vertrauenswürdig","","Wie vertrauenswürdig ist dieses Gesicht?","images/upright/Stimulus-Upright-White20.jpg","Upright","White","Vertrauenswürdigkeit","Sat Jun 15 2019 14:16:05 GMT+0200 (Mitteleuropäische Sommerzeit)","1560600965921","21","weiblich","Deutsch","","1560601487182","8.687683333333334","INSERT_A_NUMBER",
"rate_face","13","5","3798","Gar nicht vertrauenswürdig","Sehr vertrauenswürdig","","Wie vertrauenswürdig ist dieses Gesicht?","images/upright/Stimulus-Upright-Black29.jpg","Upright","Black","Vertrauenswürdigkeit","Sat Jun 15 2019 14:16:05 GMT+0200 (Mitteleuropäische Sommerzeit)","1560600965921","21","weiblich","Deutsch","","1560601487182","8.687683333333334","INSERT_A_NUMBER",
"rate_face","14","5","2158","Gar nicht vertrauenswürdig","Sehr vertrauenswürdig","","Wie vertrauenswürdig ist dieses Gesicht?","images/upright/Stimulus-Upright-Black32.jpg","Upright","Black","Vertrauenswürdigkeit","Sat Jun 15 2019 14:16:05 GMT+0200 (Mitteleuropäische Sommerzeit)","1560600965921","21","weiblich","Deutsch","","1560601487182","8.687683333333334","INSERT_A_NUMBER",
"rate_face","15","3","2242","Gar nicht vertrauenswürdig","Sehr vertrauenswürdig","","Wie vertrauenswürdig ist dieses Gesicht?","images/upright/Stimulus-Upright-White13.jpg","Upright","White","Vertrauenswürdigkeit","Sat Jun 15 2019 14:16:05 GMT+0200 (Mitteleuropäische Sommerzeit)","1560600965921","21","weiblich","Deutsch","","1560601487182","8.687683333333334","INSERT_A_NUMBER",
"rate_face","16","4","3119","Gar nicht vertrauenswürdig","Sehr vertrauenswürdig","","Wie vertrauenswürdig ist dieses Gesicht?","images/upright/Stimulus-Upright-Black21.jpg","Upright","Black","Vertrauenswürdigkeit","Sat Jun 15 2019 14:16:05 GMT+0200 (Mitteleuropäische Sommerzeit)","1560600965921","21","weiblich","Deutsch","","1560601487182","8.687683333333334","INSERT_A_NUMBER",
"rate_face","17","4","3573","Gar nicht vertrauenswürdig","Sehr vertrauenswürdig","","Wie vertrauenswürdig ist dieses Gesicht?","images/upright/Stimulus-Upright-White31.jpg","Upright","White","Vertrauenswürdigkeit","Sat Jun 15 2019 14:16:05 GMT+0200 (Mitteleuropäische Sommerzeit)","1560600965921","21","weiblich","Deutsch","","1560601487182","8.687683333333334","INSERT_A_NUMBER",
"rate_face","18","3","1864","Gar nicht vertrauenswürdig","Sehr vertrauenswürdig","","Wie vertrauenswürdig ist dieses Gesicht?","images/upright/Stimulus-Upright-White34.jpg","Upright","White","Vertrauenswürdigkeit","Sat Jun 15 2019 14:16:05 GMT+0200 (Mitteleuropäische Sommerzeit)","1560600965921","21","weiblich","Deutsch","","1560601487182","8.687683333333334","INSERT_A_NUMBER",
"rate_face","19","3","4623","Gar nicht vertrauenswürdig","Sehr vertrauenswürdig","","Wie vertrauenswürdig ist dieses Gesicht?","images/upright/Stimulus-Upright-Black2.jpg","Upright","Black","Vertrauenswürdigkeit","Sat Jun 15 2019 14:16:05 GMT+0200 (Mitteleuropäische Sommerzeit)","1560600965921","21","weiblich","Deutsch","","1560601487182","8.687683333333334","INSERT_A_NUMBER",
"rate_face","20","3","2259","Gar nicht vertrauenswürdig","Sehr vertrauenswürdig","","Wie vertrauenswürdig ist dieses Gesicht?","images/upright/Stimulus-Upright-Black34.jpg","Upright","Black","Vertrauenswürdigkeit","Sat Jun 15 2019 14:16:05 GMT+0200 (Mitteleuropäische Sommerzeit)","1560600965921","21","weiblich","Deutsch","","1560601487182","8.687683333333334","INSERT_A_NUMBER",
"rate_face","21","5","3299","Gar nicht vertrauenswürdig","Sehr vertrauenswürdig","","Wie vertrauenswürdig ist dieses Gesicht?","images/upright/Stimulus-Upright-White36.jpg","Upright","White","Vertrauenswürdigkeit","Sat Jun 15 2019 14:16:05 GMT+0200 (Mitteleuropäische Sommerzeit)","1560600965921","21","weiblich","Deutsch","","1560601487182","8.687683333333334","INSERT_A_NUMBER",
"rate_face","22","2","2573","Gar nicht vertrauenswürdig","Sehr vertrauenswürdig","","Wie vertrauenswürdig ist dieses Gesicht?","images/upright/Stimulus-Upright-White23.jpg","Upright","White","Vertrauenswürdigkeit","Sat Jun 15 2019 14:16:05 GMT+0200 (Mitteleuropäische Sommerzeit)","1560600965921","21","weiblich","Deutsch","","1560601487182","8.687683333333334","INSERT_A_NUMBER",
"rate_face","23","4","2664","Gar nicht vertrauenswürdig","Sehr vertrauenswürdig","","Wie vertrauenswürdig ist dieses Gesicht?","images/upright/Stimulus-Upright-Black14.jpg","Upright","Black","Vertrauenswürdigkeit","Sat Jun 15 2019 14:16:05 GMT+0200 (Mitteleuropäische Sommerzeit)","1560600965921","21","weiblich","Deutsch","","1560601487182","8.687683333333334","INSERT_A_NUMBER",
"rate_face","24","5","5394","Gar nicht vertrauenswürdig","Sehr vertrauenswürdig","","Wie vertrauenswürdig ist dieses Gesicht?","images/upright/Stimulus-Upright-Black17.jpg","Upright","Black","Vertrauenswürdigkeit","Sat Jun 15 2019 14:16:05 GMT+0200 (Mitteleuropäische Sommerzeit)","1560600965921","21","weiblich","Deutsch","","1560601487182","8.687683333333334","INSERT_A_NUMBER",
"rate_face","25","3","7041","Gar nicht vertrauenswürdig","Sehr vertrauenswürdig","","Wie vertrauenswürdig ist dieses Gesicht?","images/upright/Stimulus-Upright-Black27.jpg","Upright","Black","Vertrauenswürdigkeit","Sat Jun 15 2019 14:16:05 GMT+0200 (Mitteleuropäische Sommerzeit)","1560600965921","21","weiblich","Deutsch","","1560601487182","8.687683333333334","INSERT_A_NUMBER",
"rate_face","26","4","2307","Gar nicht vertrauenswürdig","Sehr vertrauenswürdig","","Wie vertrauenswürdig ist dieses Gesicht?","images/upright/Stimulus-Upright-Black20.jpg","Upright","Black","Vertrauenswürdigkeit","Sat Jun 15 2019 14:16:05 GMT+0200 (Mitteleuropäische Sommerzeit)","1560600965921","21","weiblich","Deutsch","","1560601487182","8.687683333333334","INSERT_A_NUMBER",
"rate_face","27","5","7177","Gar nicht vertrauenswürdig","Sehr vertrauenswürdig","","Wie vertrauenswürdig ist dieses Gesicht?","images/upright/Stimulus-Upright-White18.jpg","Upright","White","Vertrauenswürdigkeit","Sat Jun 15 2019 14:16:05 GMT+0200 (Mitteleuropäische Sommerzeit)","1560600965921","21","weiblich","Deutsch","","1560601487182","8.687683333333334","INSERT_A_NUMBER",
"rate_face","28","4","1961","Gar nicht vertrauenswürdig","Sehr vertrauenswürdig","","Wie vertrauenswürdig ist dieses Gesicht?","images/upright/Stimulus-Upright-White8.jpg","Upright","White","Vertrauenswürdigkeit","Sat Jun 15 2019 14:16:05 GMT+0200 (Mitteleuropäische Sommerzeit)","1560600965921","21","weiblich","Deutsch","","1560601487182","8.687683333333334","INSERT_A_NUMBER",
"rate_face","29","4","1607","Gar nicht vertrauenswürdig","Sehr vertrauenswürdig","","Wie vertrauenswürdig ist dieses Gesicht?","images/upright/Stimulus-Upright-White16.jpg","Upright","White","Vertrauenswürdigkeit","Sat Jun 15 2019 14:16:05 GMT+0200 (Mitteleuropäische Sommerzeit)","1560600965921","21","weiblich","Deutsch","","1560601487182","8.687683333333334","INSERT_A_NUMBER",
"rate_face","30","6","2118","Gar nicht vertrauenswürdig","Sehr vertrauenswürdig","","Wie vertrauenswürdig ist dieses Gesicht?","images/upright/Stimulus-Upright-Black13.jpg","Upright","Black","Vertrauenswürdigkeit","Sat Jun 15 2019 14:16:05 GMT+0200 (Mitteleuropäische Sommerzeit)","1560600965921","21","weiblich","Deutsch","","1560601487182","8.687683333333334","INSERT_A_NUMBER",
"rate_face","31","2","2275","Gar nicht vertrauenswürdig","Sehr vertrauenswürdig","","Wie vertrauenswürdig ist dieses Gesicht?","images/upright/Stimulus-Upright-White7.jpg","Upright","White","Vertrauenswürdigkeit","Sat Jun 15 2019 14:16:05 GMT+0200 (Mitteleuropäische Sommerzeit)","1560600965921","21","weiblich","Deutsch","","1560601487182","8.687683333333334","INSERT_A_NUMBER",
"rate_face","32","7","2588","Gar nicht vertrauenswürdig","Sehr vertrauenswürdig","","Wie vertrauenswürdig ist dieses Gesicht?","images/upright/Stimulus-Upright-White30.jpg","Upright","White","Vertrauenswürdigkeit","Sat Jun 15 2019 14:16:05 GMT+0200 (Mitteleuropäische Sommerzeit)","1560600965921","21","weiblich","Deutsch","","1560601487182","8.687683333333334","INSERT_A_NUMBER",
"rate_face","33","3","2938","Gar nicht vertrauenswürdig","Sehr vertrauenswürdig","","Wie vertrauenswürdig ist dieses Gesicht?","images/upright/Stimulus-Upright-White14.jpg","Upright","White","Vertrauenswürdigkeit","Sat Jun 15 2019 14:16:05 GMT+0200 (Mitteleuropäische Sommerzeit)","1560600965921","21","weiblich","Deutsch","","1560601487182","8.687683333333334","INSERT_A_NUMBER",
"rate_face","34","3","1422","Gar nicht vertrauenswürdig","Sehr vertrauenswürdig","","Wie vertrauenswürdig ist dieses Gesicht?","images/upright/Stimulus-Upright-White12.jpg","Upright","White","Vertrauenswürdigkeit","Sat Jun 15 2019 14:16:05 GMT+0200 (Mitteleuropäische Sommerzeit)","1560600965921","21","weiblich","Deutsch","","1560601487182","8.687683333333334","INSERT_A_NUMBER",
"rate_face","35","6","4689","Gar nicht vertrauenswürdig","Sehr vertrauenswürdig","","Wie vertrauenswürdig ist dieses Gesicht?","images/upright/Stimulus-Upright-White24.jpg","Upright","White","Vertrauenswürdigkeit","Sat Jun 15 2019 14:16:05 GMT+0200 (Mitteleuropäische Sommerzeit)","1560600965921","21","weiblich","Deutsch","","1560601487182","8.687683333333334","INSERT_A_NUMBER",
"rate_face","36","6","2162","Gar nicht vertrauenswürdig","Sehr vertrauenswürdig","","Wie vertrauenswürdig ist dieses Gesicht?","images/upright/Stimulus-Upright-White22.jpg","Upright","White","Vertrauenswürdigkeit","Sat Jun 15 2019 14:16:05 GMT+0200 (Mitteleuropäische Sommerzeit)","1560600965921","21","weiblich","Deutsch","","1560601487182","8.687683333333334","INSERT_A_NUMBER",
"rate_face","37","6","1479","Gar nicht vertrauenswürdig","Sehr vertrauenswürdig","","Wie vertrauenswürdig ist dieses Gesicht?","images/upright/Stimulus-Upright-Black10.jpg","Upright","Black","Vertrauenswürdigkeit","Sat Jun 15 2019 14:16:05 GMT+0200 (Mitteleuropäische Sommerzeit)","1560600965921","21","weiblich","Deutsch","","1560601487182","8.687683333333334","INSERT_A_NUMBER",
"rate_face","38","6","1156","Gar nicht vertrauenswürdig","Sehr vertrauenswürdig","","Wie vertrauenswürdig ist dieses Gesicht?","images/upright/Stimulus-Upright-Black5.jpg","Upright","Black","Vertrauenswürdigkeit","Sat Jun 15 2019 14:16:05 GMT+0200 (Mitteleuropäische Sommerzeit)","1560600965921","21","weiblich","Deutsch","","1560601487182","8.687683333333334","INSERT_A_NUMBER",
"rate_face","39","1","1744","Gar nicht vertrauenswürdig","Sehr vertrauenswürdig","","Wie vertrauenswürdig ist dieses Gesicht?","images/upright/Stimulus-Upright-White32.jpg","Upright","White","Vertrauenswürdigkeit","Sat Jun 15 2019 14:16:05 GMT+0200 (Mitteleuropäische Sommerzeit)","1560600965921","21","weiblich","Deutsch","","1560601487182","8.687683333333334","INSERT_A_NUMBER",
"rate_face","40","4","3010","Gar nicht vertrauenswürdig","Sehr vertrauenswürdig","","Wie vertrauenswürdig ist dieses Gesicht?","images/upright/Stimulus-Upright-White29.jpg","Upright","White","Vertrauenswürdigkeit","Sat Jun 15 2019 14:16:05 GMT+0200 (Mitteleuropäische Sommerzeit)","1560600965921","21","weiblich","Deutsch","","1560601487182","8.687683333333334","INSERT_A_NUMBER",
"rate_face","41","5","2934","Gar nicht vertrauenswürdig","Sehr vertrauenswürdig","","Wie vertrauenswürdig ist dieses Gesicht?","images/upright/Stimulus-Upright-White2.jpg","Upright","White","Vertrauenswürdigkeit","Sat Jun 15 2019 14:16:05 GMT+0200 (Mitteleuropäische Sommerzeit)","1560600965921","21","weiblich","Deutsch","","1560601487182","8.687683333333334","INSERT_A_NUMBER",
"rate_face","42","6","2041","Gar nicht vertrauenswürdig","Sehr vertrauenswürdig","","Wie vertrauenswürdig ist dieses Gesicht?","images/upright/Stimulus-Upright-White35.jpg","Upright","White","Vertrauenswürdigkeit","Sat Jun 15 2019 14:16:05 GMT+0200 (Mitteleuropäische Sommerzeit)","1560600965921","21","weiblich","Deutsch","","1560601487182","8.687683333333334","INSERT_A_NUMBER",
"rate_face","43","3","1868","Gar nicht vertrauenswürdig","Sehr vertrauenswürdig","","Wie vertrauenswürdig ist dieses Gesicht?","images/upright/Stimulus-Upright-White27.jpg","Upright","White","Vertrauenswürdigkeit","Sat Jun 15 2019 14:16:05 GMT+0200 (Mitteleuropäische Sommerzeit)","1560600965921","21","weiblich","Deutsch","","1560601487182","8.687683333333334","INSERT_A_NUMBER",
"rate_face","44","2","2057","Gar nicht vertrauenswürdig","Sehr vertrauenswürdig","","Wie vertrauenswürdig ist dieses Gesicht?","images/upright/Stimulus-Upright-Black26.jpg","Upright","Black","Vertrauenswürdigkeit","Sat Jun 15 2019 14:16:05 GMT+0200 (Mitteleuropäische Sommerzeit)","1560600965921","21","weiblich","Deutsch","","1560601487182","8.687683333333334","INSERT_A_NUMBER",
"rate_face","45","3","3043","Gar nicht vertrauenswürdig","Sehr vertrauenswürdig","","Wie vertrauenswürdig ist dieses Gesicht?","images/upright/Stimulus-Upright-Black8.jpg","Upright","Black","Vertrauenswürdigkeit","Sat Jun 15 2019 14:16:05 GMT+0200 (Mitteleuropäische Sommerzeit)","1560600965921","21","weiblich","Deutsch","","1560601487182","8.687683333333334","INSERT_A_NUMBER",
"rate_face","46","3","5707","Gar nicht vertrauenswürdig","Sehr vertrauenswürdig","","Wie vertrauenswürdig ist dieses Gesicht?","images/upright/Stimulus-Upright-Black19.jpg","Upright","Black","Vertrauenswürdigkeit","Sat Jun 15 2019 14:16:05 GMT+0200 (Mitteleuropäische Sommerzeit)","1560600965921","21","weiblich","Deutsch","","1560601487182","8.687683333333334","INSERT_A_NUMBER",
"rate_face","47","6","2524","Gar nicht vertrauenswürdig","Sehr vertrauenswürdig","","Wie vertrauenswürdig ist dieses Gesicht?","images/upright/Stimulus-Upright-White5.jpg","Upright","White","Vertrauenswürdigkeit","Sat Jun 15 2019 14:16:05 GMT+0200 (Mitteleuropäische Sommerzeit)","1560600965921","21","weiblich","Deutsch","","1560601487182","8.687683333333334","INSERT_A_NUMBER",
"rate_face","48","6","6273","Gar nicht vertrauenswürdig","Sehr vertrauenswürdig","","Wie vertrauenswürdig ist dieses Gesicht?","images/upright/Stimulus-Upright-Black25.jpg","Upright","Black","Vertrauenswürdigkeit","Sat Jun 15 2019 14:16:05 GMT+0200 (Mitteleuropäische Sommerzeit)","1560600965921","21","weiblich","Deutsch","","1560601487182","8.687683333333334","INSERT_A_NUMBER",
"rate_face","49","3","1696","Gar nicht vertrauenswürdig","Sehr vertrauenswürdig","","Wie vertrauenswürdig ist dieses Gesicht?","images/upright/Stimulus-Upright-Black28.jpg","Upright","Black","Vertrauenswürdigkeit","Sat Jun 15 2019 14:16:05 GMT+0200 (Mitteleuropäische Sommerzeit)","1560600965921","21","weiblich","Deutsch","","1560601487182","8.687683333333334","INSERT_A_NUMBER",
"rate_face","50","5","3142","Gar nicht vertrauenswürdig","Sehr vertrauenswürdig","","Wie vertrauenswürdig ist dieses Gesicht?","images/upright/Stimulus-Upright-Black12.jpg","Upright","Black","Vertrauenswürdigkeit","Sat Jun 15 2019 14:16:05 GMT+0200 (Mitteleuropäische Sommerzeit)","1560600965921","21","weiblich","Deutsch","","1560601487182","8.687683333333334","INSERT_A_NUMBER",
"rate_face","51","1","1952","Gar nicht vertrauenswürdig","Sehr vertrauenswürdig","","Wie vertrauenswürdig ist dieses Gesicht?","images/upright/Stimulus-Upright-White26.jpg","Upright","White","Vertrauenswürdigkeit","Sat Jun 15 2019 14:16:05 GMT+0200 (Mitteleuropäische Sommerzeit)","1560600965921","21","weiblich","Deutsch","","1560601487182","8.687683333333334","INSERT_A_NUMBER",
"rate_face","52","1","1444","Gar nicht vertrauenswürdig","Sehr vertrauenswürdig","","Wie vertrauenswürdig ist dieses Gesicht?","images/upright/Stimulus-Upright-White25.jpg","Upright","White","Vertrauenswürdigkeit","Sat Jun 15 2019 14:16:05 GMT+0200 (Mitteleuropäische Sommerzeit)","1560600965921","21","weiblich","Deutsch","","1560601487182","8.687683333333334","INSERT_A_NUMBER",
"rate_face","53","3","2217","Gar nicht vertrauenswürdig","Sehr vertrauenswürdig","","Wie vertrauenswürdig ist dieses Gesicht?","images/upright/Stimulus-Upright-White9.jpg","Upright","White","Vertrauenswürdigkeit","Sat Jun 15 2019 14:16:05 GMT+0200 (Mitteleuropäische Sommerzeit)","1560600965921","21","weiblich","Deutsch","","1560601487182","8.687683333333334","INSERT_A_NUMBER",
"rate_face","54","3","1797","Gar nicht vertrauenswürdig","Sehr vertrauenswürdig","","Wie vertrauenswürdig ist dieses Gesicht?","images/upright/Stimulus-Upright-Black30.jpg","Upright","Black","Vertrauenswürdigkeit","Sat Jun 15 2019 14:16:05 GMT+0200 (Mitteleuropäische Sommerzeit)","1560600965921","21","weiblich","Deutsch","","1560601487182","8.687683333333334","INSERT_A_NUMBER",
"rate_face","55","3","1270","Gar nicht vertrauenswürdig","Sehr vertrauenswürdig","","Wie vertrauenswürdig ist dieses Gesicht?","images/upright/Stimulus-Upright-Black18.jpg","Upright","Black","Vertrauenswürdigkeit","Sat Jun 15 2019 14:16:05 GMT+0200 (Mitteleuropäische Sommerzeit)","1560600965921","21","weiblich","Deutsch","","1560601487182","8.687683333333334","INSERT_A_NUMBER",
"rate_face","56","5","3074","Gar nicht vertrauenswürdig","Sehr vertrauenswürdig","","Wie vertrauenswürdig ist dieses Gesicht?","images/upright/Stimulus-Upright-White19.jpg","Upright","White","Vertrauenswürdigkeit","Sat Jun 15 2019 14:16:05 GMT+0200 (Mitteleuropäische Sommerzeit)","1560600965921","21","weiblich","Deutsch","","1560601487182","8.687683333333334","INSERT_A_NUMBER",
"rate_face","57","3","1849","Gar nicht vertrauenswürdig","Sehr vertrauenswürdig","","Wie vertrauenswürdig ist dieses Gesicht?","images/upright/Stimulus-Upright-Black15.jpg","Upright","Black","Vertrauenswürdigkeit","Sat Jun 15 2019 14:16:05 GMT+0200 (Mitteleuropäische Sommerzeit)","1560600965921","21","weiblich","Deutsch","","1560601487182","8.687683333333334","INSERT_A_NUMBER",
"rate_face","58","3","1286","Gar nicht vertrauenswürdig","Sehr vertrauenswürdig","","Wie vertrauenswürdig ist dieses Gesicht?","images/upright/Stimulus-Upright-Black23.jpg","Upright","Black","Vertrauenswürdigkeit","Sat Jun 15 2019 14:16:05 GMT+0200 (Mitteleuropäische Sommerzeit)","1560600965921","21","weiblich","Deutsch","","1560601487182","8.687683333333334","INSERT_A_NUMBER",
"rate_face","59","6","1744","Gar nicht vertrauenswürdig","Sehr vertrauenswürdig","","Wie vertrauenswürdig ist dieses Gesicht?","images/upright/Stimulus-Upright-White17.jpg","Upright","White","Vertrauenswürdigkeit","Sat Jun 15 2019 14:16:05 GMT+0200 (Mitteleuropäische Sommerzeit)","1560600965921","21","weiblich","Deutsch","","1560601487182","8.687683333333334","INSERT_A_NUMBER",
"rate_face","60","5","2508","Gar nicht vertrauenswürdig","Sehr vertrauenswürdig","","Wie vertrauenswürdig ist dieses Gesicht?","images/upright/Stimulus-Upright-Black1.jpg","Upright","Black","Vertrauenswürdigkeit","Sat Jun 15 2019 14:16:05 GMT+0200 (Mitteleuropäische Sommerzeit)","1560600965921","21","weiblich","Deutsch","","1560601487182","8.687683333333334","INSERT_A_NUMBER",
"rate_face","61","6","1471","Gar nicht vertrauenswürdig","Sehr vertrauenswürdig","","Wie vertrauenswürdig ist dieses Gesicht?","images/upright/Stimulus-Upright-White28.jpg","Upright","White","Vertrauenswürdigkeit","Sat Jun 15 2019 14:16:05 GMT+0200 (Mitteleuropäische Sommerzeit)","1560600965921","21","weiblich","Deutsch","","1560601487182","8.687683333333334","INSERT_A_NUMBER",
"rate_face","62","3","6651","Gar nicht vertrauenswürdig","Sehr vertrauenswürdig","","Wie vertrauenswürdig ist dieses Gesicht?","images/upright/Stimulus-Upright-Black36.jpg","Upright","Black","Vertrauenswürdigkeit","Sat Jun 15 2019 14:16:05 GMT+0200 (Mitteleuropäische Sommerzeit)","1560600965921","21","weiblich","Deutsch","","1560601487182","8.687683333333334","INSERT_A_NUMBER",
"rate_face","63","7","2298","Gar nicht vertrauenswürdig","Sehr vertrauenswürdig","","Wie vertrauenswürdig ist dieses Gesicht?","images/upright/Stimulus-Upright-Black7.jpg","Upright","Black","Vertrauenswürdigkeit","Sat Jun 15 2019 14:16:05 GMT+0200 (Mitteleuropäische Sommerzeit)","1560600965921","21","weiblich","Deutsch","","1560601487182","8.687683333333334","INSERT_A_NUMBER",
"rate_face","64","5","4340","Gar nicht vertrauenswürdig","Sehr vertrauenswürdig","","Wie vertrauenswürdig ist dieses Gesicht?","images/upright/Stimulus-Upright-Black22.jpg","Upright","Black","Vertrauenswürdigkeit","Sat Jun 15 2019 14:16:05 GMT+0200 (Mitteleuropäische Sommerzeit)","1560600965921","21","weiblich","Deutsch","","1560601487182","8.687683333333334","INSERT_A_NUMBER",
"rate_face","65","3","4372","Gar nicht vertrauenswürdig","Sehr vertrauenswürdig","","Wie vertrauenswürdig ist dieses Gesicht?","images/upright/Stimulus-Upright-Black31.jpg","Upright","Black","Vertrauenswürdigkeit","Sat Jun 15 2019 14:16:05 GMT+0200 (Mitteleuropäische Sommerzeit)","1560600965921","21","weiblich","Deutsch","","1560601487182","8.687683333333334","INSERT_A_NUMBER",
"rate_face","66","3","2890","Gar nicht vertrauenswürdig","Sehr vertrauenswürdig","","Wie vertrauenswürdig ist dieses Gesicht?","images/upright/Stimulus-Upright-Black3.jpg","Upright","Black","Vertrauenswürdigkeit","Sat Jun 15 2019 14:16:05 GMT+0200 (Mitteleuropäische Sommerzeit)","1560600965921","21","weiblich","Deutsch","","1560601487182","8.687683333333334","INSERT_A_NUMBER",
"rate_face","67","3","2355","Gar nicht vertrauenswürdig","Sehr vertrauenswürdig","","Wie vertrauenswürdig ist dieses Gesicht?","images/upright/Stimulus-Upright-Black9.jpg","Upright","Black","Vertrauenswürdigkeit","Sat Jun 15 2019 14:16:05 GMT+0200 (Mitteleuropäische Sommerzeit)","1560600965921","21","weiblich","Deutsch","","1560601487182","8.687683333333334","INSERT_A_NUMBER",
"rate_face","68","3","2012","Gar nicht vertrauenswürdig","Sehr vertrauenswürdig","","Wie vertrauenswürdig ist dieses Gesicht?","images/upright/Stimulus-Upright-White6.jpg","Upright","White","Vertrauenswürdigkeit","Sat Jun 15 2019 14:16:05 GMT+0200 (Mitteleuropäische Sommerzeit)","1560600965921","21","weiblich","Deutsch","","1560601487182","8.687683333333334","INSERT_A_NUMBER",
"rate_face","69","4","1961","Gar nicht vertrauenswürdig","Sehr vertrauenswürdig","","Wie vertrauenswürdig ist dieses Gesicht?","images/upright/Stimulus-Upright-White10.jpg","Upright","White","Vertrauenswürdigkeit","Sat Jun 15 2019 14:16:05 GMT+0200 (Mitteleuropäische Sommerzeit)","1560600965921","21","weiblich","Deutsch","","1560601487182","8.687683333333334","INSERT_A_NUMBER",
"rate_face","70","3","3894","Gar nicht vertrauenswürdig","Sehr vertrauenswürdig","","Wie vertrauenswürdig ist dieses Gesicht?","images/upright/Stimulus-Upright-Black6.jpg","Upright","Black","Vertrauenswürdigkeit","Sat Jun 15 2019 14:16:05 GMT+0200 (Mitteleuropäische Sommerzeit)","1560600965921","21","weiblich","Deutsch","","1560601487182","8.687683333333334","INSERT_A_NUMBER",
"rate_face","71","2","1848","Gar nicht vertrauenswürdig","Sehr vertrauenswürdig","","Wie vertrauenswürdig ist dieses Gesicht?","images/upright/Stimulus-Upright-Black11.jpg","Upright","Black","Vertrauenswürdigkeit","Sat Jun 15 2019 14:16:05 GMT+0200 (Mitteleuropäische Sommerzeit)","1560600965921","21","weiblich","Deutsch","","1560601487182","8.687683333333334","INSERT_A_NUMBER",
"rate_face","72","1","1889","Gar nicht vertrauenswürdig","Sehr vertrauenswürdig","","Wie vertrauenswürdig ist dieses Gesicht?","images/upright/Stimulus-Upright-White11.jpg","Upright","White","Vertrauenswürdigkeit","Sat Jun 15 2019 14:16:05 GMT+0200 (Mitteleuropäische Sommerzeit)","1560600965921","21","weiblich","Deutsch","","1560601487182","8.687683333333334","INSERT_A_NUMBER",
"rate_face","73","5","7515","Gar nicht vertrauenswürdig","Sehr vertrauenswürdig","","Wie vertrauenswürdig ist dieses Gesicht?","images/inverted/Stimulus-Inverted-Black31.jpg","Inverted","Black","Vertrauenswürdigkeit","Sat Jun 15 2019 14:16:05 GMT+0200 (Mitteleuropäische Sommerzeit)","1560600965921","21","weiblich","Deutsch","","1560601487182","8.687683333333334","INSERT_A_NUMBER",
"rate_face","74","6","2178","Gar nicht vertrauenswürdig","Sehr vertrauenswürdig","","Wie vertrauenswürdig ist dieses Gesicht?","images/inverted/Stimulus-Inverted-Black5.jpg","Inverted","Black","Vertrauenswürdigkeit","Sat Jun 15 2019 14:16:05 GMT+0200 (Mitteleuropäische Sommerzeit)","1560600965921","21","weiblich","Deutsch","","1560601487182","8.687683333333334","INSERT_A_NUMBER",
"rate_face","75","6","5514","Gar nicht vertrauenswürdig","Sehr vertrauenswürdig","","Wie vertrauenswürdig ist dieses Gesicht?","images/inverted/Stimulus-Inverted-Black19.jpg","Inverted","Black","Vertrauenswürdigkeit","Sat Jun 15 2019 14:16:05 GMT+0200 (Mitteleuropäische Sommerzeit)","1560600965921","21","weiblich","Deutsch","","1560601487182","8.687683333333334","INSERT_A_NUMBER",
"rate_face","76","6","6202","Gar nicht vertrauenswürdig","Sehr vertrauenswürdig","","Wie vertrauenswürdig ist dieses Gesicht?","images/inverted/Stimulus-Inverted-White24.jpg","Inverted","White","Vertrauenswürdigkeit","Sat Jun 15 2019 14:16:05 GMT+0200 (Mitteleuropäische Sommerzeit)","1560600965921","21","weiblich","Deutsch","","1560601487182","8.687683333333334","INSERT_A_NUMBER",
"rate_face","77","2","2901","Gar nicht vertrauenswürdig","Sehr vertrauenswürdig","","Wie vertrauenswürdig ist dieses Gesicht?","images/inverted/Stimulus-Inverted-White5.jpg","Inverted","White","Vertrauenswürdigkeit","Sat Jun 15 2019 14:16:05 GMT+0200 (Mitteleuropäische Sommerzeit)","1560600965921","21","weiblich","Deutsch","","1560601487182","8.687683333333334","INSERT_A_NUMBER",
"rate_face","78","2","2347","Gar nicht vertrauenswürdig","Sehr vertrauenswürdig","","Wie vertrauenswürdig ist dieses Gesicht?","images/inverted/Stimulus-Inverted-Black9.jpg","Inverted","Black","Vertrauenswürdigkeit","Sat Jun 15 2019 14:16:05 GMT+0200 (Mitteleuropäische Sommerzeit)","1560600965921","21","weiblich","Deutsch","","1560601487182","8.687683333333334","INSERT_A_NUMBER",
"rate_face","79","3","1534","Gar nicht vertrauenswürdig","Sehr vertrauenswürdig","","Wie vertrauenswürdig ist dieses Gesicht?","images/inverted/Stimulus-Inverted-Black17.jpg","Inverted","Black","Vertrauenswürdigkeit","Sat Jun 15 2019 14:16:05 GMT+0200 (Mitteleuropäische Sommerzeit)","1560600965921","21","weiblich","Deutsch","","1560601487182","8.687683333333334","INSERT_A_NUMBER",
"rate_face","80","5","4336","Gar nicht vertrauenswürdig","Sehr vertrauenswürdig","","Wie vertrauenswürdig ist dieses Gesicht?","images/inverted/Stimulus-Inverted-Black6.jpg","Inverted","Black","Vertrauenswürdigkeit","Sat Jun 15 2019 14:16:05 GMT+0200 (Mitteleuropäische Sommerzeit)","1560600965921","21","weiblich","Deutsch","","1560601487182","8.687683333333334","INSERT_A_NUMBER",
"rate_face","81","7","2776","Gar nicht vertrauenswürdig","Sehr vertrauenswürdig","","Wie vertrauenswürdig ist dieses Gesicht?","images/inverted/Stimulus-Inverted-Black7.jpg","Inverted","Black","Vertrauenswürdigkeit","Sat Jun 15 2019 14:16:05 GMT+0200 (Mitteleuropäische Sommerzeit)","1560600965921","21","weiblich","Deutsch","","1560601487182","8.687683333333334","INSERT_A_NUMBER",
"rate_face","82","5","5016","Gar nicht vertrauenswürdig","Sehr vertrauenswürdig","","Wie vertrauenswürdig ist dieses Gesicht?","images/inverted/Stimulus-Inverted-Black33.jpg","Inverted","Black","Vertrauenswürdigkeit","Sat Jun 15 2019 14:16:05 GMT+0200 (Mitteleuropäische Sommerzeit)","1560600965921","21","weiblich","Deutsch","","1560601487182","8.687683333333334","INSERT_A_NUMBER",
"rate_face","83","1","1889","Gar nicht vertrauenswürdig","Sehr vertrauenswürdig","","Wie vertrauenswürdig ist dieses Gesicht?","images/inverted/Stimulus-Inverted-White9.jpg","Inverted","White","Vertrauenswürdigkeit","Sat Jun 15 2019 14:16:05 GMT+0200 (Mitteleuropäische Sommerzeit)","1560600965921","21","weiblich","Deutsch","","1560601487182","8.687683333333334","INSERT_A_NUMBER",
"rate_face","84","4","3762","Gar nicht vertrauenswürdig","Sehr vertrauenswürdig","","Wie vertrauenswürdig ist dieses Gesicht?","images/inverted/Stimulus-Inverted-Black30.jpg","Inverted","Black","Vertrauenswürdigkeit","Sat Jun 15 2019 14:16:05 GMT+0200 (Mitteleuropäische Sommerzeit)","1560600965921","21","weiblich","Deutsch","","1560601487182","8.687683333333334","INSERT_A_NUMBER",
"rate_face","85","3","2741","Gar nicht vertrauenswürdig","Sehr vertrauenswürdig","","Wie vertrauenswürdig ist dieses Gesicht?","images/inverted/Stimulus-Inverted-Black16.jpg","Inverted","Black","Vertrauenswürdigkeit","Sat Jun 15 2019 14:16:05 GMT+0200 (Mitteleuropäische Sommerzeit)","1560600965921","21","weiblich","Deutsch","","1560601487182","8.687683333333334","INSERT_A_NUMBER",
"rate_face","86","6","2628","Gar nicht vertrauenswürdig","Sehr vertrauenswürdig","","Wie vertrauenswürdig ist dieses Gesicht?","images/inverted/Stimulus-Inverted-Black10.jpg","Inverted","Black","Vertrauenswürdigkeit","Sat Jun 15 2019 14:16:05 GMT+0200 (Mitteleuropäische Sommerzeit)","1560600965921","21","weiblich","Deutsch","","1560601487182","8.687683333333334","INSERT_A_NUMBER",
"rate_face","87","6","7116","Gar nicht vertrauenswürdig","Sehr vertrauenswürdig","","Wie vertrauenswürdig ist dieses Gesicht?","images/inverted/Stimulus-Inverted-White36.jpg","Inverted","White","Vertrauenswürdigkeit","Sat Jun 15 2019 14:16:05 GMT+0200 (Mitteleuropäische Sommerzeit)","1560600965921","21","weiblich","Deutsch","","1560601487182","8.687683333333334","INSERT_A_NUMBER",
"rate_face","88","2","6740","Gar nicht vertrauenswürdig","Sehr vertrauenswürdig","","Wie vertrauenswürdig ist dieses Gesicht?","images/inverted/Stimulus-Inverted-Black24.jpg","Inverted","Black","Vertrauenswürdigkeit","Sat Jun 15 2019 14:16:05 GMT+0200 (Mitteleuropäische Sommerzeit)","1560600965921","21","weiblich","Deutsch","","1560601487182","8.687683333333334","INSERT_A_NUMBER",
"rate_face","89","3","3131","Gar nicht vertrauenswürdig","Sehr vertrauenswürdig","","Wie vertrauenswürdig ist dieses Gesicht?","images/inverted/Stimulus-Inverted-White7.jpg","Inverted","White","Vertrauenswürdigkeit","Sat Jun 15 2019 14:16:05 GMT+0200 (Mitteleuropäische Sommerzeit)","1560600965921","21","weiblich","Deutsch","","1560601487182","8.687683333333334","INSERT_A_NUMBER",
"rate_face","90","5","3134","Gar nicht vertrauenswürdig","Sehr vertrauenswürdig","","Wie vertrauenswürdig ist dieses Gesicht?","images/inverted/Stimulus-Inverted-White20.jpg","Inverted","White","Vertrauenswürdigkeit","Sat Jun 15 2019 14:16:05 GMT+0200 (Mitteleuropäische Sommerzeit)","1560600965921","21","weiblich","Deutsch","","1560601487182","8.687683333333334","INSERT_A_NUMBER",
"rate_face","91","4","1667","Gar nicht vertrauenswürdig","Sehr vertrauenswürdig","","Wie vertrauenswürdig ist dieses Gesicht?","images/inverted/Stimulus-Inverted-Black29.jpg","Inverted","Black","Vertrauenswürdigkeit","Sat Jun 15 2019 14:16:05 GMT+0200 (Mitteleuropäische Sommerzeit)","1560600965921","21","weiblich","Deutsch","","1560601487182","8.687683333333334","INSERT_A_NUMBER",
"rate_face","92","6","2121","Gar nicht vertrauenswürdig","Sehr vertrauenswürdig","","Wie vertrauenswürdig ist dieses Gesicht?","images/inverted/Stimulus-Inverted-Black36.jpg","Inverted","Black","Vertrauenswürdigkeit","Sat Jun 15 2019 14:16:05 GMT+0200 (Mitteleuropäische Sommerzeit)","1560600965921","21","weiblich","Deutsch","","1560601487182","8.687683333333334","INSERT_A_NUMBER",
"rate_face","93","2","2303","Gar nicht vertrauenswürdig","Sehr vertrauenswürdig","","Wie vertrauenswürdig ist dieses Gesicht?","images/inverted/Stimulus-Inverted-Black21.jpg","Inverted","Black","Vertrauenswürdigkeit","Sat Jun 15 2019 14:16:05 GMT+0200 (Mitteleuropäische Sommerzeit)","1560600965921","21","weiblich","Deutsch","","1560601487182","8.687683333333334","INSERT_A_NUMBER",
"rate_face","94","1","2950","Gar nicht vertrauenswürdig","Sehr vertrauenswürdig","","Wie vertrauenswürdig ist dieses Gesicht?","images/inverted/Stimulus-Inverted-White19.jpg","Inverted","White","Vertrauenswürdigkeit","Sat Jun 15 2019 14:16:05 GMT+0200 (Mitteleuropäische Sommerzeit)","1560600965921","21","weiblich","Deutsch","","1560601487182","8.687683333333334","INSERT_A_NUMBER",
"rate_face","95","3","4420","Gar nicht vertrauenswürdig","Sehr vertrauenswürdig","","Wie vertrauenswürdig ist dieses Gesicht?","images/inverted/Stimulus-Inverted-Black3.jpg","Inverted","Black","Vertrauenswürdigkeit","Sat Jun 15 2019 14:16:05 GMT+0200 (Mitteleuropäische Sommerzeit)","1560600965921","21","weiblich","Deutsch","","1560601487182","8.687683333333334","INSERT_A_NUMBER",
"rate_face","96","6","3492","Gar nicht vertrauenswürdig","Sehr vertrauenswürdig","","Wie vertrauenswürdig ist dieses Gesicht?","images/inverted/Stimulus-Inverted-White8.jpg","Inverted","White","Vertrauenswürdigkeit","Sat Jun 15 2019 14:16:05 GMT+0200 (Mitteleuropäische Sommerzeit)","1560600965921","21","weiblich","Deutsch","","1560601487182","8.687683333333334","INSERT_A_NUMBER",
"rate_face","97","3","1809","Gar nicht vertrauenswürdig","Sehr vertrauenswürdig","","Wie vertrauenswürdig ist dieses Gesicht?","images/inverted/Stimulus-Inverted-White14.jpg","Inverted","White","Vertrauenswürdigkeit","Sat Jun 15 2019 14:16:05 GMT+0200 (Mitteleuropäische Sommerzeit)","1560600965921","21","weiblich","Deutsch","","1560601487182","8.687683333333334","INSERT_A_NUMBER",
"rate_face","98","2","1957","Gar nicht vertrauenswürdig","Sehr vertrauenswürdig","","Wie vertrauenswürdig ist dieses Gesicht?","images/inverted/Stimulus-Inverted-Black28.jpg","Inverted","Black","Vertrauenswürdigkeit","Sat Jun 15 2019 14:16:05 GMT+0200 (Mitteleuropäische Sommerzeit)","1560600965921","21","weiblich","Deutsch","","1560601487182","8.687683333333334","INSERT_A_NUMBER",
"rate_face","99","3","3559","Gar nicht vertrauenswürdig","Sehr vertrauenswürdig","","Wie vertrauenswürdig ist dieses Gesicht?","images/inverted/Stimulus-Inverted-Black25.jpg","Inverted","Black","Vertrauenswürdigkeit","Sat Jun 15 2019 14:16:05 GMT+0200 (Mitteleuropäische Sommerzeit)","1560600965921","21","weiblich","Deutsch","","1560601487182","8.687683333333334","INSERT_A_NUMBER",
"rate_face","100","3","5886","Gar nicht vertrauenswürdig","Sehr vertrauenswürdig","","Wie vertrauenswürdig ist dieses Gesicht?","images/inverted/Stimulus-Inverted-White26.jpg","Inverted","White","Vertrauenswürdigkeit","Sat Jun 15 2019 14:16:05 GMT+0200 (Mitteleuropäische Sommerzeit)","1560600965921","21","weiblich","Deutsch","","1560601487182","8.687683333333334","INSERT_A_NUMBER",
"rate_face","101","2","2331","Gar nicht vertrauenswürdig","Sehr vertrauenswürdig","","Wie vertrauenswürdig ist dieses Gesicht?","images/inverted/Stimulus-Inverted-Black22.jpg","Inverted","Black","Vertrauenswürdigkeit","Sat Jun 15 2019 14:16:05 GMT+0200 (Mitteleuropäische Sommerzeit)","1560600965921","21","weiblich","Deutsch","","1560601487182","8.687683333333334","INSERT_A_NUMBER",
"rate_face","102","2","2994","Gar nicht vertrauenswürdig","Sehr vertrauenswürdig","","Wie vertrauenswürdig ist dieses Gesicht?","images/inverted/Stimulus-Inverted-Black15.jpg","Inverted","Black","Vertrauenswürdigkeit","Sat Jun 15 2019 14:16:05 GMT+0200 (Mitteleuropäische Sommerzeit)","1560600965921","21","weiblich","Deutsch","","1560601487182","8.687683333333334","INSERT_A_NUMBER",
"rate_face","103","6","4307","Gar nicht vertrauenswürdig","Sehr vertrauenswürdig","","Wie vertrauenswürdig ist dieses Gesicht?","images/inverted/Stimulus-Inverted-Black23.jpg","Inverted","Black","Vertrauenswürdigkeit","Sat Jun 15 2019 14:16:05 GMT+0200 (Mitteleuropäische Sommerzeit)","1560600965921","21","weiblich","Deutsch","","1560601487182","8.687683333333334","INSERT_A_NUMBER",
"rate_face","104","3","2330","Gar nicht vertrauenswürdig","Sehr vertrauenswürdig","","Wie vertrauenswürdig ist dieses Gesicht?","images/inverted/Stimulus-Inverted-Black18.jpg","Inverted","Black","Vertrauenswürdigkeit","Sat Jun 15 2019 14:16:05 GMT+0200 (Mitteleuropäische Sommerzeit)","1560600965921","21","weiblich","Deutsch","","1560601487182","8.687683333333334","INSERT_A_NUMBER",
"rate_face","105","1","2326","Gar nicht vertrauenswürdig","Sehr vertrauenswürdig","","Wie vertrauenswürdig ist dieses Gesicht?","images/inverted/Stimulus-Inverted-White31.jpg","Inverted","White","Vertrauenswürdigkeit","Sat Jun 15 2019 14:16:05 GMT+0200 (Mitteleuropäische Sommerzeit)","1560600965921","21","weiblich","Deutsch","","1560601487182","8.687683333333334","INSERT_A_NUMBER",
"rate_face","106","1","2057","Gar nicht vertrauenswürdig","Sehr vertrauenswürdig","","Wie vertrauenswürdig ist dieses Gesicht?","images/inverted/Stimulus-Inverted-White16.jpg","Inverted","White","Vertrauenswürdigkeit","Sat Jun 15 2019 14:16:05 GMT+0200 (Mitteleuropäische Sommerzeit)","1560600965921","21","weiblich","Deutsch","","1560601487182","8.687683333333334","INSERT_A_NUMBER",
"rate_face","107","2","5606","Gar nicht vertrauenswürdig","Sehr vertrauenswürdig","","Wie vertrauenswürdig ist dieses Gesicht?","images/inverted/Stimulus-Inverted-White27.jpg","Inverted","White","Vertrauenswürdigkeit","Sat Jun 15 2019 14:16:05 GMT+0200 (Mitteleuropäische Sommerzeit)","1560600965921","21","weiblich","Deutsch","","1560601487182","8.687683333333334","INSERT_A_NUMBER",
"rate_face","108","1","2752","Gar nicht vertrauenswürdig","Sehr vertrauenswürdig","","Wie vertrauenswürdig ist dieses Gesicht?","images/inverted/Stimulus-Inverted-White28.jpg","Inverted","White","Vertrauenswürdigkeit","Sat Jun 15 2019 14:16:05 GMT+0200 (Mitteleuropäische Sommerzeit)","1560600965921","21","weiblich","Deutsch","","1560601487182","8.687683333333334","INSERT_A_NUMBER",
"rate_face","109","1","1470","Gar nicht vertrauenswürdig","Sehr vertrauenswürdig","","Wie vertrauenswürdig ist dieses Gesicht?","images/inverted/Stimulus-Inverted-White11.jpg","Inverted","White","Vertrauenswürdigkeit","Sat Jun 15 2019 14:16:05 GMT+0200 (Mitteleuropäische Sommerzeit)","1560600965921","21","weiblich","Deutsch","","1560601487182","8.687683333333334","INSERT_A_NUMBER",
"rate_face","110","5","4131","Gar nicht vertrauenswürdig","Sehr vertrauenswürdig","","Wie vertrauenswürdig ist dieses Gesicht?","images/inverted/Stimulus-Inverted-White3.jpg","Inverted","White","Vertrauenswürdigkeit","Sat Jun 15 2019 14:16:05 GMT+0200 (Mitteleuropäische Sommerzeit)","1560600965921","21","weiblich","Deutsch","","1560601487182","8.687683333333334","INSERT_A_NUMBER",
"rate_face","111","6","2056","Gar nicht vertrauenswürdig","Sehr vertrauenswürdig","","Wie vertrauenswürdig ist dieses Gesicht?","images/inverted/Stimulus-Inverted-Black27.jpg","Inverted","Black","Vertrauenswürdigkeit","Sat Jun 15 2019 14:16:05 GMT+0200 (Mitteleuropäische Sommerzeit)","1560600965921","21","weiblich","Deutsch","","1560601487182","8.687683333333334","INSERT_A_NUMBER",
"rate_face","112","6","5629","Gar nicht vertrauenswürdig","Sehr vertrauenswürdig","","Wie vertrauenswürdig ist dieses Gesicht?","images/inverted/Stimulus-Inverted-White33.jpg","Inverted","White","Vertrauenswürdigkeit","Sat Jun 15 2019 14:16:05 GMT+0200 (Mitteleuropäische Sommerzeit)","1560600965921","21","weiblich","Deutsch","","1560601487182","8.687683333333334","INSERT_A_NUMBER",
"rate_face","113","2","1764","Gar nicht vertrauenswürdig","Sehr vertrauenswürdig","","Wie vertrauenswürdig ist dieses Gesicht?","images/inverted/Stimulus-Inverted-White34.jpg","Inverted","White","Vertrauenswürdigkeit","Sat Jun 15 2019 14:16:05 GMT+0200 (Mitteleuropäische Sommerzeit)","1560600965921","21","weiblich","Deutsch","","1560601487182","8.687683333333334","INSERT_A_NUMBER",
"rate_face","114","1","1656","Gar nicht vertrauenswürdig","Sehr vertrauenswürdig","","Wie vertrauenswürdig ist dieses Gesicht?","images/inverted/Stimulus-Inverted-Black2.jpg","Inverted","Black","Vertrauenswürdigkeit","Sat Jun 15 2019 14:16:05 GMT+0200 (Mitteleuropäische Sommerzeit)","1560600965921","21","weiblich","Deutsch","","1560601487182","8.687683333333334","INSERT_A_NUMBER",
"rate_face","115","1","4174","Gar nicht vertrauenswürdig","Sehr vertrauenswürdig","","Wie vertrauenswürdig ist dieses Gesicht?","images/inverted/Stimulus-Inverted-Black20.jpg","Inverted","Black","Vertrauenswürdigkeit","Sat Jun 15 2019 14:16:05 GMT+0200 (Mitteleuropäische Sommerzeit)","1560600965921","21","weiblich","Deutsch","","1560601487182","8.687683333333334","INSERT_A_NUMBER",
"rate_face","116","2","5528","Gar nicht vertrauenswürdig","Sehr vertrauenswürdig","","Wie vertrauenswürdig ist dieses Gesicht?","images/inverted/Stimulus-Inverted-White21.jpg","Inverted","White","Vertrauenswürdigkeit","Sat Jun 15 2019 14:16:05 GMT+0200 (Mitteleuropäische Sommerzeit)","1560600965921","21","weiblich","Deutsch","","1560601487182","8.687683333333334","INSERT_A_NUMBER",
"rate_face","117","1","3660","Gar nicht vertrauenswürdig","Sehr vertrauenswürdig","","Wie vertrauenswürdig ist dieses Gesicht?","images/inverted/Stimulus-Inverted-White12.jpg","Inverted","White","Vertrauenswürdigkeit","Sat Jun 15 2019 14:16:05 GMT+0200 (Mitteleuropäische Sommerzeit)","1560600965921","21","weiblich","Deutsch","","1560601487182","8.687683333333334","INSERT_A_NUMBER",
"rate_face","118","2","1852","Gar nicht vertrauenswürdig","Sehr vertrauenswürdig","","Wie vertrauenswürdig ist dieses Gesicht?","images/inverted/Stimulus-Inverted-White32.jpg","Inverted","White","Vertrauenswürdigkeit","Sat Jun 15 2019 14:16:05 GMT+0200 (Mitteleuropäische Sommerzeit)","1560600965921","21","weiblich","Deutsch","","1560601487182","8.687683333333334","INSERT_A_NUMBER",
"rate_face","119","5","2081","Gar nicht vertrauenswürdig","Sehr vertrauenswürdig","","Wie vertrauenswürdig ist dieses Gesicht?","images/inverted/Stimulus-Inverted-White6.jpg","Inverted","White","Vertrauenswürdigkeit","Sat Jun 15 2019 14:16:05 GMT+0200 (Mitteleuropäische Sommerzeit)","1560600965921","21","weiblich","Deutsch","","1560601487182","8.687683333333334","INSERT_A_NUMBER",
"rate_face","120","6","2836","Gar nicht vertrauenswürdig","Sehr vertrauenswürdig","","Wie vertrauenswürdig ist dieses Gesicht?","images/inverted/Stimulus-Inverted-White29.jpg","Inverted","White","Vertrauenswürdigkeit","Sat Jun 15 2019 14:16:05 GMT+0200 (Mitteleuropäische Sommerzeit)","1560600965921","21","weiblich","Deutsch","","1560601487182","8.687683333333334","INSERT_A_NUMBER",
"rate_face","121","2","3415","Gar nicht vertrauenswürdig","Sehr vertrauenswürdig","","Wie vertrauenswürdig ist dieses Gesicht?","images/inverted/Stimulus-Inverted-White23.jpg","Inverted","White","Vertrauenswürdigkeit","Sat Jun 15 2019 14:16:05 GMT+0200 (Mitteleuropäische Sommerzeit)","1560600965921","21","weiblich","Deutsch","","1560601487182","8.687683333333334","INSERT_A_NUMBER",
"rate_face","122","3","2362","Gar nicht vertrauenswürdig","Sehr vertrauenswürdig","","Wie vertrauenswürdig ist dieses Gesicht?","images/inverted/Stimulus-Inverted-Black13.jpg","Inverted","Black","Vertrauenswürdigkeit","Sat Jun 15 2019 14:16:05 GMT+0200 (Mitteleuropäische Sommerzeit)","1560600965921","21","weiblich","Deutsch","","1560601487182","8.687683333333334","INSERT_A_NUMBER",
"rate_face","123","5","2222","Gar nicht vertrauenswürdig","Sehr vertrauenswürdig","","Wie vertrauenswürdig ist dieses Gesicht?","images/inverted/Stimulus-Inverted-White22.jpg","Inverted","White","Vertrauenswürdigkeit","Sat Jun 15 2019 14:16:05 GMT+0200 (Mitteleuropäische Sommerzeit)","1560600965921","21","weiblich","Deutsch","","1560601487182","8.687683333333334","INSERT_A_NUMBER",
"rate_face","124","3","4280","Gar nicht vertrauenswürdig","Sehr vertrauenswürdig","","Wie vertrauenswürdig ist dieses Gesicht?","images/inverted/Stimulus-Inverted-Black34.jpg","Inverted","Black","Vertrauenswürdigkeit","Sat Jun 15 2019 14:16:05 GMT+0200 (Mitteleuropäische Sommerzeit)","1560600965921","21","weiblich","Deutsch","","1560601487182","8.687683333333334","INSERT_A_NUMBER",
"rate_face","125","5","2129","Gar nicht vertrauenswürdig","Sehr vertrauenswürdig","","Wie vertrauenswürdig ist dieses Gesicht?","images/inverted/Stimulus-Inverted-Black8.jpg","Inverted","Black","Vertrauenswürdigkeit","Sat Jun 15 2019 14:16:05 GMT+0200 (Mitteleuropäische Sommerzeit)","1560600965921","21","weiblich","Deutsch","","1560601487182","8.687683333333334","INSERT_A_NUMBER",
"rate_face","126","6","1916","Gar nicht vertrauenswürdig","Sehr vertrauenswürdig","","Wie vertrauenswürdig ist dieses Gesicht?","images/inverted/Stimulus-Inverted-Black1.jpg","Inverted","Black","Vertrauenswürdigkeit","Sat Jun 15 2019 14:16:05 GMT+0200 (Mitteleuropäische Sommerzeit)","1560600965921","21","weiblich","Deutsch","","1560601487182","8.687683333333334","INSERT_A_NUMBER",
"rate_face","127","2","1993","Gar nicht vertrauenswürdig","Sehr vertrauenswürdig","","Wie vertrauenswürdig ist dieses Gesicht?","images/inverted/Stimulus-Inverted-Black35.jpg","Inverted","Black","Vertrauenswürdigkeit","Sat Jun 15 2019 14:16:05 GMT+0200 (Mitteleuropäische Sommerzeit)","1560600965921","21","weiblich","Deutsch","","1560601487182","8.687683333333334","INSERT_A_NUMBER",
"rate_face","128","1","1843","Gar nicht vertrauenswürdig","Sehr vertrauenswürdig","","Wie vertrauenswürdig ist dieses Gesicht?","images/inverted/Stimulus-Inverted-Black4.jpg","Inverted","Black","Vertrauenswürdigkeit","Sat Jun 15 2019 14:16:05 GMT+0200 (Mitteleuropäische Sommerzeit)","1560600965921","21","weiblich","Deutsch","","1560601487182","8.687683333333334","INSERT_A_NUMBER",
"rate_face","129","2","3182","Gar nicht vertrauenswürdig","Sehr vertrauenswürdig","","Wie vertrauenswürdig ist dieses Gesicht?","images/inverted/Stimulus-Inverted-Black12.jpg","Inverted","Black","Vertrauenswürdigkeit","Sat Jun 15 2019 14:16:05 GMT+0200 (Mitteleuropäische Sommerzeit)","1560600965921","21","weiblich","Deutsch","","1560601487182","8.687683333333334","INSERT_A_NUMBER",
"rate_face","130","3","1836","Gar nicht vertrauenswürdig","Sehr vertrauenswürdig","","Wie vertrauenswürdig ist dieses Gesicht?","images/inverted/Stimulus-Inverted-Black11.jpg","Inverted","Black","Vertrauenswürdigkeit","Sat Jun 15 2019 14:16:05 GMT+0200 (Mitteleuropäische Sommerzeit)","1560600965921","21","weiblich","Deutsch","","1560601487182","8.687683333333334","INSERT_A_NUMBER",
"rate_face","131","5","2490","Gar nicht vertrauenswürdig","Sehr vertrauenswürdig","","Wie vertrauenswürdig ist dieses Gesicht?","images/inverted/Stimulus-Inverted-White30.jpg","Inverted","White","Vertrauenswürdigkeit","Sat Jun 15 2019 14:16:05 GMT+0200 (Mitteleuropäische Sommerzeit)","1560600965921","21","weiblich","Deutsch","","1560601487182","8.687683333333334","INSERT_A_NUMBER",
"rate_face","132","3","1792","Gar nicht vertrauenswürdig","Sehr vertrauenswürdig","","Wie vertrauenswürdig ist dieses Gesicht?","images/inverted/Stimulus-Inverted-Black14.jpg","Inverted","Black","Vertrauenswürdigkeit","Sat Jun 15 2019 14:16:05 GMT+0200 (Mitteleuropäische Sommerzeit)","1560600965921","21","weiblich","Deutsch","","1560601487182","8.687683333333334","INSERT_A_NUMBER",
"rate_face","133","5","2459","Gar nicht vertrauenswürdig","Sehr vertrauenswürdig","","Wie vertrauenswürdig ist dieses Gesicht?","images/inverted/Stimulus-Inverted-White17.jpg","Inverted","White","Vertrauenswürdigkeit","Sat Jun 15 2019 14:16:05 GMT+0200 (Mitteleuropäische Sommerzeit)","1560600965921","21","weiblich","Deutsch","","1560601487182","8.687683333333334","INSERT_A_NUMBER",
"rate_face","134","1","2342","Gar nicht vertrauenswürdig","Sehr vertrauenswürdig","","Wie vertrauenswürdig ist dieses Gesicht?","images/inverted/Stimulus-Inverted-White35.jpg","Inverted","White","Vertrauenswürdigkeit","Sat Jun 15 2019 14:16:05 GMT+0200 (Mitteleuropäische Sommerzeit)","1560600965921","21","weiblich","Deutsch","","1560601487182","8.687683333333334","INSERT_A_NUMBER",
"rate_face","135","1","1342","Gar nicht vertrauenswürdig","Sehr vertrauenswürdig","","Wie vertrauenswürdig ist dieses Gesicht?","images/inverted/Stimulus-Inverted-White25.jpg","Inverted","White","Vertrauenswürdigkeit","Sat Jun 15 2019 14:16:05 GMT+0200 (Mitteleuropäische Sommerzeit)","1560600965921","21","weiblich","Deutsch","","1560601487182","8.687683333333334","INSERT_A_NUMBER",
"rate_face","136","1","1337","Gar nicht vertrauenswürdig","Sehr vertrauenswürdig","","Wie vertrauenswürdig ist dieses Gesicht?","images/inverted/Stimulus-Inverted-White13.jpg","Inverted","White","Vertrauenswürdigkeit","Sat Jun 15 2019 14:16:05 GMT+0200 (Mitteleuropäische Sommerzeit)","1560600965921","21","weiblich","Deutsch","","1560601487182","8.687683333333334","INSERT_A_NUMBER",
"rate_face","137","3","4597","Gar nicht vertrauenswürdig","Sehr vertrauenswürdig","","Wie vertrauenswürdig ist dieses Gesicht?","images/inverted/Stimulus-Inverted-White2.jpg","Inverted","White","Vertrauenswürdigkeit","Sat Jun 15 2019 14:16:05 GMT+0200 (Mitteleuropäische Sommerzeit)","1560600965921","21","weiblich","Deutsch","","1560601487182","8.687683333333334","INSERT_A_NUMBER",
"rate_face","138","6","1739","Gar nicht vertrauenswürdig","Sehr vertrauenswürdig","","Wie vertrauenswürdig ist dieses Gesicht?","images/inverted/Stimulus-Inverted-White1.jpg","Inverted","White","Vertrauenswürdigkeit","Sat Jun 15 2019 14:16:05 GMT+0200 (Mitteleuropäische Sommerzeit)","1560600965921","21","weiblich","Deutsch","","1560601487182","8.687683333333334","INSERT_A_NUMBER",
"rate_face","139","5","2169","Gar nicht vertrauenswürdig","Sehr vertrauenswürdig","","Wie vertrauenswürdig ist dieses Gesicht?","images/inverted/Stimulus-Inverted-Black26.jpg","Inverted","Black","Vertrauenswürdigkeit","Sat Jun 15 2019 14:16:05 GMT+0200 (Mitteleuropäische Sommerzeit)","1560600965921","21","weiblich","Deutsch","","1560601487182","8.687683333333334","INSERT_A_NUMBER",
"rate_face","140","3","5665","Gar nicht vertrauenswürdig","Sehr vertrauenswürdig","","Wie vertrauenswürdig ist dieses Gesicht?","images/inverted/Stimulus-Inverted-White10.jpg","Inverted","White","Vertrauenswürdigkeit","Sat Jun 15 2019 14:16:05 GMT+0200 (Mitteleuropäische Sommerzeit)","1560600965921","21","weiblich","Deutsch","","1560601487182","8.687683333333334","INSERT_A_NUMBER",
"rate_face","141","5","7738","Gar nicht vertrauenswürdig","Sehr vertrauenswürdig","","Wie vertrauenswürdig ist dieses Gesicht?","images/inverted/Stimulus-Inverted-White18.jpg","Inverted","White","Vertrauenswürdigkeit","Sat Jun 15 2019 14:16:05 GMT+0200 (Mitteleuropäische Sommerzeit)","1560600965921","21","weiblich","Deutsch","","1560601487182","8.687683333333334","INSERT_A_NUMBER",
"rate_face","142","3","1708","Gar nicht vertrauenswürdig","Sehr vertrauenswürdig","","Wie vertrauenswürdig ist dieses Gesicht?","images/inverted/Stimulus-Inverted-White15.jpg","Inverted","White","Vertrauenswürdigkeit","Sat Jun 15 2019 14:16:05 GMT+0200 (Mitteleuropäische Sommerzeit)","1560600965921","21","weiblich","Deutsch","","1560601487182","8.687683333333334","INSERT_A_NUMBER",
"rate_face","143","6","1798","Gar nicht vertrauenswürdig","Sehr vertrauenswürdig","","Wie vertrauenswürdig ist dieses Gesicht?","images/inverted/Stimulus-Inverted-Black32.jpg","Inverted","Black","Vertrauenswürdigkeit","Sat Jun 15 2019 14:16:05 GMT+0200 (Mitteleuropäische Sommerzeit)","1560600965921","21","weiblich","Deutsch","","1560601487182","8.687683333333334","INSERT_A_NUMBER",
"rate_face","144","5","3515","Gar nicht vertrauenswürdig","Sehr vertrauenswürdig","","Wie vertrauenswürdig ist dieses Gesicht?","images/inverted/Stimulus-Inverted-White4.jpg","Inverted","White","Vertrauenswürdigkeit","Sat Jun 15 2019 14:16:05 GMT+0200 (Mitteleuropäische Sommerzeit)","1560600965921","21","weiblich","Deutsch","","1560601487182","8.687683333333334","INSERT_A_NUMBER",
