"trial_name","trial_number","response","RT","optionLeft","optionRight","QUD","question","picture","pictureFormat","color","category","startDate","startTime","age","gender","languages","comments","endTime","timeSpent","experiment_id",
"rate_personality","1","7","4988","Trifft gleichermaßen auf Menschen und Tiere zu","Trifft nur auf Menschen zu","Wie bewerten sie das folgende Merkmal?","Selbstsicherheit","NA","NA","NA","NA","Fri Jun 14 2019 18:01:29 GMT+0200 (Mitteleuropäische Sommerzeit)","1560528089680","20","weiblich","deutsch","","1560528597574","8.4649","INSERT_A_NUMBER",
"rate_personality","2","8","3109","Trifft gleichermaßen auf Menschen und Tiere zu","Trifft nur auf Menschen zu","Wie bewerten sie das folgende Merkmal?","Gewissenhaftigkeit","NA","NA","NA","NA","Fri Jun 14 2019 18:01:29 GMT+0200 (Mitteleuropäische Sommerzeit)","1560528089680","20","weiblich","deutsch","","1560528597574","8.4649","INSERT_A_NUMBER",
"rate_personality","3","2","8180","Trifft gleichermaßen auf Menschen und Tiere zu","Trifft nur auf Menschen zu","Wie bewerten sie das folgende Merkmal?","Dominanz","NA","NA","NA","NA","Fri Jun 14 2019 18:01:29 GMT+0200 (Mitteleuropäische Sommerzeit)","1560528089680","20","weiblich","deutsch","","1560528597574","8.4649","INSERT_A_NUMBER",
"rate_personality","4","8","5009","Trifft gleichermaßen auf Menschen und Tiere zu","Trifft nur auf Menschen zu","Wie bewerten sie das folgende Merkmal?","Höflichlichkeit","NA","NA","NA","NA","Fri Jun 14 2019 18:01:29 GMT+0200 (Mitteleuropäische Sommerzeit)","1560528089680","20","weiblich","deutsch","","1560528597574","8.4649","INSERT_A_NUMBER",
"rate_personality","5","6","4713","Trifft gleichermaßen auf Menschen und Tiere zu","Trifft nur auf Menschen zu","Wie bewerten sie das folgende Merkmal?","Extrovertiertheit","NA","NA","NA","NA","Fri Jun 14 2019 18:01:29 GMT+0200 (Mitteleuropäische Sommerzeit)","1560528089680","20","weiblich","deutsch","","1560528597574","8.4649","INSERT_A_NUMBER",
"rate_personality","6","4","2642","Trifft gleichermaßen auf Menschen und Tiere zu","Trifft nur auf Menschen zu","Wie bewerten sie das folgende Merkmal?","Freundlichkeit","NA","NA","NA","NA","Fri Jun 14 2019 18:01:29 GMT+0200 (Mitteleuropäische Sommerzeit)","1560528089680","20","weiblich","deutsch","","1560528597574","8.4649","INSERT_A_NUMBER",
"rate_personality","7","1","4805","Trifft gleichermaßen auf Menschen und Tiere zu","Trifft nur auf Menschen zu","Wie bewerten sie das folgende Merkmal?","Agressivität","NA","NA","NA","NA","Fri Jun 14 2019 18:01:29 GMT+0200 (Mitteleuropäische Sommerzeit)","1560528089680","20","weiblich","deutsch","","1560528597574","8.4649","INSERT_A_NUMBER",
"rate_personality","8","3","4130","Trifft gleichermaßen auf Menschen und Tiere zu","Trifft nur auf Menschen zu","Wie bewerten sie das folgende Merkmal?","Sensibilität","NA","NA","NA","NA","Fri Jun 14 2019 18:01:29 GMT+0200 (Mitteleuropäische Sommerzeit)","1560528089680","20","weiblich","deutsch","","1560528597574","8.4649","INSERT_A_NUMBER",
"rate_personality","9","3","6271","Trifft gleichermaßen auf Menschen und Tiere zu","Trifft nur auf Menschen zu","Wie bewerten sie das folgende Merkmal?","Vertrauenswürdigkeit","NA","NA","NA","NA","Fri Jun 14 2019 18:01:29 GMT+0200 (Mitteleuropäische Sommerzeit)","1560528089680","20","weiblich","deutsch","","1560528597574","8.4649","INSERT_A_NUMBER",
"rate_personality","10","4","4743","Trifft gleichermaßen auf Menschen und Tiere zu","Trifft nur auf Menschen zu","Wie bewerten sie das folgende Merkmal?","Geduld","NA","NA","NA","NA","Fri Jun 14 2019 18:01:29 GMT+0200 (Mitteleuropäische Sommerzeit)","1560528089680","20","weiblich","deutsch","","1560528597574","8.4649","INSERT_A_NUMBER",
"rate_face","1","5","7222","Gar nicht vertrauenswürdig","Sehr vertrauenswürdig","","Wie vertrauenswürdig ist dieses Gesicht?","images/upright/Stimulus-Upright-Black28.jpg","Upright","Black","Vertrauenswürdigkeit","Fri Jun 14 2019 18:01:29 GMT+0200 (Mitteleuropäische Sommerzeit)","1560528089680","20","weiblich","deutsch","","1560528597574","8.4649","INSERT_A_NUMBER",
"rate_face","2","4","2141","Gar nicht vertrauenswürdig","Sehr vertrauenswürdig","","Wie vertrauenswürdig ist dieses Gesicht?","images/upright/Stimulus-Upright-White13.jpg","Upright","White","Vertrauenswürdigkeit","Fri Jun 14 2019 18:01:29 GMT+0200 (Mitteleuropäische Sommerzeit)","1560528089680","20","weiblich","deutsch","","1560528597574","8.4649","INSERT_A_NUMBER",
"rate_face","3","3","2592","Gar nicht vertrauenswürdig","Sehr vertrauenswürdig","","Wie vertrauenswürdig ist dieses Gesicht?","images/upright/Stimulus-Upright-White32.jpg","Upright","White","Vertrauenswürdigkeit","Fri Jun 14 2019 18:01:29 GMT+0200 (Mitteleuropäische Sommerzeit)","1560528089680","20","weiblich","deutsch","","1560528597574","8.4649","INSERT_A_NUMBER",
"rate_face","4","6","4905","Gar nicht vertrauenswürdig","Sehr vertrauenswürdig","","Wie vertrauenswürdig ist dieses Gesicht?","images/upright/Stimulus-Upright-Black7.jpg","Upright","Black","Vertrauenswürdigkeit","Fri Jun 14 2019 18:01:29 GMT+0200 (Mitteleuropäische Sommerzeit)","1560528089680","20","weiblich","deutsch","","1560528597574","8.4649","INSERT_A_NUMBER",
"rate_face","5","3","2418","Gar nicht vertrauenswürdig","Sehr vertrauenswürdig","","Wie vertrauenswürdig ist dieses Gesicht?","images/upright/Stimulus-Upright-White25.jpg","Upright","White","Vertrauenswürdigkeit","Fri Jun 14 2019 18:01:29 GMT+0200 (Mitteleuropäische Sommerzeit)","1560528089680","20","weiblich","deutsch","","1560528597574","8.4649","INSERT_A_NUMBER",
"rate_face","6","6","2447","Gar nicht vertrauenswürdig","Sehr vertrauenswürdig","","Wie vertrauenswürdig ist dieses Gesicht?","images/upright/Stimulus-Upright-Black26.jpg","Upright","Black","Vertrauenswürdigkeit","Fri Jun 14 2019 18:01:29 GMT+0200 (Mitteleuropäische Sommerzeit)","1560528089680","20","weiblich","deutsch","","1560528597574","8.4649","INSERT_A_NUMBER",
"rate_face","7","6","2192","Gar nicht vertrauenswürdig","Sehr vertrauenswürdig","","Wie vertrauenswürdig ist dieses Gesicht?","images/upright/Stimulus-Upright-Black25.jpg","Upright","Black","Vertrauenswürdigkeit","Fri Jun 14 2019 18:01:29 GMT+0200 (Mitteleuropäische Sommerzeit)","1560528089680","20","weiblich","deutsch","","1560528597574","8.4649","INSERT_A_NUMBER",
"rate_face","8","6","4099","Gar nicht vertrauenswürdig","Sehr vertrauenswürdig","","Wie vertrauenswürdig ist dieses Gesicht?","images/upright/Stimulus-Upright-White21.jpg","Upright","White","Vertrauenswürdigkeit","Fri Jun 14 2019 18:01:29 GMT+0200 (Mitteleuropäische Sommerzeit)","1560528089680","20","weiblich","deutsch","","1560528597574","8.4649","INSERT_A_NUMBER",
"rate_face","9","3","1775","Gar nicht vertrauenswürdig","Sehr vertrauenswürdig","","Wie vertrauenswürdig ist dieses Gesicht?","images/upright/Stimulus-Upright-Black13.jpg","Upright","Black","Vertrauenswürdigkeit","Fri Jun 14 2019 18:01:29 GMT+0200 (Mitteleuropäische Sommerzeit)","1560528089680","20","weiblich","deutsch","","1560528597574","8.4649","INSERT_A_NUMBER",
"rate_face","10","4","3267","Gar nicht vertrauenswürdig","Sehr vertrauenswürdig","","Wie vertrauenswürdig ist dieses Gesicht?","images/upright/Stimulus-Upright-Black6.jpg","Upright","Black","Vertrauenswürdigkeit","Fri Jun 14 2019 18:01:29 GMT+0200 (Mitteleuropäische Sommerzeit)","1560528089680","20","weiblich","deutsch","","1560528597574","8.4649","INSERT_A_NUMBER",
"rate_face","11","6","3495","Gar nicht vertrauenswürdig","Sehr vertrauenswürdig","","Wie vertrauenswürdig ist dieses Gesicht?","images/upright/Stimulus-Upright-Black2.jpg","Upright","Black","Vertrauenswürdigkeit","Fri Jun 14 2019 18:01:29 GMT+0200 (Mitteleuropäische Sommerzeit)","1560528089680","20","weiblich","deutsch","","1560528597574","8.4649","INSERT_A_NUMBER",
"rate_face","12","4","6111","Gar nicht vertrauenswürdig","Sehr vertrauenswürdig","","Wie vertrauenswürdig ist dieses Gesicht?","images/upright/Stimulus-Upright-White28.jpg","Upright","White","Vertrauenswürdigkeit","Fri Jun 14 2019 18:01:29 GMT+0200 (Mitteleuropäische Sommerzeit)","1560528089680","20","weiblich","deutsch","","1560528597574","8.4649","INSERT_A_NUMBER",
"rate_face","13","3","1628","Gar nicht vertrauenswürdig","Sehr vertrauenswürdig","","Wie vertrauenswürdig ist dieses Gesicht?","images/upright/Stimulus-Upright-Black14.jpg","Upright","Black","Vertrauenswürdigkeit","Fri Jun 14 2019 18:01:29 GMT+0200 (Mitteleuropäische Sommerzeit)","1560528089680","20","weiblich","deutsch","","1560528597574","8.4649","INSERT_A_NUMBER",
"rate_face","14","3","1540","Gar nicht vertrauenswürdig","Sehr vertrauenswürdig","","Wie vertrauenswürdig ist dieses Gesicht?","images/upright/Stimulus-Upright-White29.jpg","Upright","White","Vertrauenswürdigkeit","Fri Jun 14 2019 18:01:29 GMT+0200 (Mitteleuropäische Sommerzeit)","1560528089680","20","weiblich","deutsch","","1560528597574","8.4649","INSERT_A_NUMBER",
"rate_face","15","3","1386","Gar nicht vertrauenswürdig","Sehr vertrauenswürdig","","Wie vertrauenswürdig ist dieses Gesicht?","images/upright/Stimulus-Upright-Black5.jpg","Upright","Black","Vertrauenswürdigkeit","Fri Jun 14 2019 18:01:29 GMT+0200 (Mitteleuropäische Sommerzeit)","1560528089680","20","weiblich","deutsch","","1560528597574","8.4649","INSERT_A_NUMBER",
"rate_face","16","5","2735","Gar nicht vertrauenswürdig","Sehr vertrauenswürdig","","Wie vertrauenswürdig ist dieses Gesicht?","images/upright/Stimulus-Upright-White2.jpg","Upright","White","Vertrauenswürdigkeit","Fri Jun 14 2019 18:01:29 GMT+0200 (Mitteleuropäische Sommerzeit)","1560528089680","20","weiblich","deutsch","","1560528597574","8.4649","INSERT_A_NUMBER",
"rate_face","17","5","1905","Gar nicht vertrauenswürdig","Sehr vertrauenswürdig","","Wie vertrauenswürdig ist dieses Gesicht?","images/upright/Stimulus-Upright-Black30.jpg","Upright","Black","Vertrauenswürdigkeit","Fri Jun 14 2019 18:01:29 GMT+0200 (Mitteleuropäische Sommerzeit)","1560528089680","20","weiblich","deutsch","","1560528597574","8.4649","INSERT_A_NUMBER",
"rate_face","18","3","4488","Gar nicht vertrauenswürdig","Sehr vertrauenswürdig","","Wie vertrauenswürdig ist dieses Gesicht?","images/upright/Stimulus-Upright-White4.jpg","Upright","White","Vertrauenswürdigkeit","Fri Jun 14 2019 18:01:29 GMT+0200 (Mitteleuropäische Sommerzeit)","1560528089680","20","weiblich","deutsch","","1560528597574","8.4649","INSERT_A_NUMBER",
"rate_face","19","6","4173","Gar nicht vertrauenswürdig","Sehr vertrauenswürdig","","Wie vertrauenswürdig ist dieses Gesicht?","images/upright/Stimulus-Upright-White33.jpg","Upright","White","Vertrauenswürdigkeit","Fri Jun 14 2019 18:01:29 GMT+0200 (Mitteleuropäische Sommerzeit)","1560528089680","20","weiblich","deutsch","","1560528597574","8.4649","INSERT_A_NUMBER",
"rate_face","20","6","1807","Gar nicht vertrauenswürdig","Sehr vertrauenswürdig","","Wie vertrauenswürdig ist dieses Gesicht?","images/upright/Stimulus-Upright-White35.jpg","Upright","White","Vertrauenswürdigkeit","Fri Jun 14 2019 18:01:29 GMT+0200 (Mitteleuropäische Sommerzeit)","1560528089680","20","weiblich","deutsch","","1560528597574","8.4649","INSERT_A_NUMBER",
"rate_face","21","4","2151","Gar nicht vertrauenswürdig","Sehr vertrauenswürdig","","Wie vertrauenswürdig ist dieses Gesicht?","images/upright/Stimulus-Upright-White9.jpg","Upright","White","Vertrauenswürdigkeit","Fri Jun 14 2019 18:01:29 GMT+0200 (Mitteleuropäische Sommerzeit)","1560528089680","20","weiblich","deutsch","","1560528597574","8.4649","INSERT_A_NUMBER",
"rate_face","22","6","3999","Gar nicht vertrauenswürdig","Sehr vertrauenswürdig","","Wie vertrauenswürdig ist dieses Gesicht?","images/upright/Stimulus-Upright-Black34.jpg","Upright","Black","Vertrauenswürdigkeit","Fri Jun 14 2019 18:01:29 GMT+0200 (Mitteleuropäische Sommerzeit)","1560528089680","20","weiblich","deutsch","","1560528597574","8.4649","INSERT_A_NUMBER",
"rate_face","23","7","2118","Gar nicht vertrauenswürdig","Sehr vertrauenswürdig","","Wie vertrauenswürdig ist dieses Gesicht?","images/upright/Stimulus-Upright-Black17.jpg","Upright","Black","Vertrauenswürdigkeit","Fri Jun 14 2019 18:01:29 GMT+0200 (Mitteleuropäische Sommerzeit)","1560528089680","20","weiblich","deutsch","","1560528597574","8.4649","INSERT_A_NUMBER",
"rate_face","24","4","2532","Gar nicht vertrauenswürdig","Sehr vertrauenswürdig","","Wie vertrauenswürdig ist dieses Gesicht?","images/upright/Stimulus-Upright-Black10.jpg","Upright","Black","Vertrauenswürdigkeit","Fri Jun 14 2019 18:01:29 GMT+0200 (Mitteleuropäische Sommerzeit)","1560528089680","20","weiblich","deutsch","","1560528597574","8.4649","INSERT_A_NUMBER",
"rate_face","25","3","1808","Gar nicht vertrauenswürdig","Sehr vertrauenswürdig","","Wie vertrauenswürdig ist dieses Gesicht?","images/upright/Stimulus-Upright-White31.jpg","Upright","White","Vertrauenswürdigkeit","Fri Jun 14 2019 18:01:29 GMT+0200 (Mitteleuropäische Sommerzeit)","1560528089680","20","weiblich","deutsch","","1560528597574","8.4649","INSERT_A_NUMBER",
"rate_face","26","5","2222","Gar nicht vertrauenswürdig","Sehr vertrauenswürdig","","Wie vertrauenswürdig ist dieses Gesicht?","images/upright/Stimulus-Upright-White23.jpg","Upright","White","Vertrauenswürdigkeit","Fri Jun 14 2019 18:01:29 GMT+0200 (Mitteleuropäische Sommerzeit)","1560528089680","20","weiblich","deutsch","","1560528597574","8.4649","INSERT_A_NUMBER",
"rate_face","27","4","5744","Gar nicht vertrauenswürdig","Sehr vertrauenswürdig","","Wie vertrauenswürdig ist dieses Gesicht?","images/upright/Stimulus-Upright-Black9.jpg","Upright","Black","Vertrauenswürdigkeit","Fri Jun 14 2019 18:01:29 GMT+0200 (Mitteleuropäische Sommerzeit)","1560528089680","20","weiblich","deutsch","","1560528597574","8.4649","INSERT_A_NUMBER",
"rate_face","28","2","1703","Gar nicht vertrauenswürdig","Sehr vertrauenswürdig","","Wie vertrauenswürdig ist dieses Gesicht?","images/upright/Stimulus-Upright-White26.jpg","Upright","White","Vertrauenswürdigkeit","Fri Jun 14 2019 18:01:29 GMT+0200 (Mitteleuropäische Sommerzeit)","1560528089680","20","weiblich","deutsch","","1560528597574","8.4649","INSERT_A_NUMBER",
"rate_face","29","3","3246","Gar nicht vertrauenswürdig","Sehr vertrauenswürdig","","Wie vertrauenswürdig ist dieses Gesicht?","images/upright/Stimulus-Upright-Black36.jpg","Upright","Black","Vertrauenswürdigkeit","Fri Jun 14 2019 18:01:29 GMT+0200 (Mitteleuropäische Sommerzeit)","1560528089680","20","weiblich","deutsch","","1560528597574","8.4649","INSERT_A_NUMBER",
"rate_face","30","3","2284","Gar nicht vertrauenswürdig","Sehr vertrauenswürdig","","Wie vertrauenswürdig ist dieses Gesicht?","images/upright/Stimulus-Upright-Black11.jpg","Upright","Black","Vertrauenswürdigkeit","Fri Jun 14 2019 18:01:29 GMT+0200 (Mitteleuropäische Sommerzeit)","1560528089680","20","weiblich","deutsch","","1560528597574","8.4649","INSERT_A_NUMBER",
"rate_face","31","3","2029","Gar nicht vertrauenswürdig","Sehr vertrauenswürdig","","Wie vertrauenswürdig ist dieses Gesicht?","images/upright/Stimulus-Upright-Black24.jpg","Upright","Black","Vertrauenswürdigkeit","Fri Jun 14 2019 18:01:29 GMT+0200 (Mitteleuropäische Sommerzeit)","1560528089680","20","weiblich","deutsch","","1560528597574","8.4649","INSERT_A_NUMBER",
"rate_face","32","3","3765","Gar nicht vertrauenswürdig","Sehr vertrauenswürdig","","Wie vertrauenswürdig ist dieses Gesicht?","images/upright/Stimulus-Upright-Black4.jpg","Upright","Black","Vertrauenswürdigkeit","Fri Jun 14 2019 18:01:29 GMT+0200 (Mitteleuropäische Sommerzeit)","1560528089680","20","weiblich","deutsch","","1560528597574","8.4649","INSERT_A_NUMBER",
"rate_face","33","6","3303","Gar nicht vertrauenswürdig","Sehr vertrauenswürdig","","Wie vertrauenswürdig ist dieses Gesicht?","images/upright/Stimulus-Upright-White18.jpg","Upright","White","Vertrauenswürdigkeit","Fri Jun 14 2019 18:01:29 GMT+0200 (Mitteleuropäische Sommerzeit)","1560528089680","20","weiblich","deutsch","","1560528597574","8.4649","INSERT_A_NUMBER",
"rate_face","34","4","3120","Gar nicht vertrauenswürdig","Sehr vertrauenswürdig","","Wie vertrauenswürdig ist dieses Gesicht?","images/upright/Stimulus-Upright-White27.jpg","Upright","White","Vertrauenswürdigkeit","Fri Jun 14 2019 18:01:29 GMT+0200 (Mitteleuropäische Sommerzeit)","1560528089680","20","weiblich","deutsch","","1560528597574","8.4649","INSERT_A_NUMBER",
"rate_face","35","4","5959","Gar nicht vertrauenswürdig","Sehr vertrauenswürdig","","Wie vertrauenswürdig ist dieses Gesicht?","images/upright/Stimulus-Upright-White24.jpg","Upright","White","Vertrauenswürdigkeit","Fri Jun 14 2019 18:01:29 GMT+0200 (Mitteleuropäische Sommerzeit)","1560528089680","20","weiblich","deutsch","","1560528597574","8.4649","INSERT_A_NUMBER",
"rate_face","36","4","1560","Gar nicht vertrauenswürdig","Sehr vertrauenswürdig","","Wie vertrauenswürdig ist dieses Gesicht?","images/upright/Stimulus-Upright-Black29.jpg","Upright","Black","Vertrauenswürdigkeit","Fri Jun 14 2019 18:01:29 GMT+0200 (Mitteleuropäische Sommerzeit)","1560528089680","20","weiblich","deutsch","","1560528597574","8.4649","INSERT_A_NUMBER",
"rate_face","37","4","4538","Gar nicht vertrauenswürdig","Sehr vertrauenswürdig","","Wie vertrauenswürdig ist dieses Gesicht?","images/upright/Stimulus-Upright-White19.jpg","Upright","White","Vertrauenswürdigkeit","Fri Jun 14 2019 18:01:29 GMT+0200 (Mitteleuropäische Sommerzeit)","1560528089680","20","weiblich","deutsch","","1560528597574","8.4649","INSERT_A_NUMBER",
"rate_face","38","5","4314","Gar nicht vertrauenswürdig","Sehr vertrauenswürdig","","Wie vertrauenswürdig ist dieses Gesicht?","images/upright/Stimulus-Upright-White16.jpg","Upright","White","Vertrauenswürdigkeit","Fri Jun 14 2019 18:01:29 GMT+0200 (Mitteleuropäische Sommerzeit)","1560528089680","20","weiblich","deutsch","","1560528597574","8.4649","INSERT_A_NUMBER",
"rate_face","39","4","2540","Gar nicht vertrauenswürdig","Sehr vertrauenswürdig","","Wie vertrauenswürdig ist dieses Gesicht?","images/upright/Stimulus-Upright-Black21.jpg","Upright","Black","Vertrauenswürdigkeit","Fri Jun 14 2019 18:01:29 GMT+0200 (Mitteleuropäische Sommerzeit)","1560528089680","20","weiblich","deutsch","","1560528597574","8.4649","INSERT_A_NUMBER",
"rate_face","40","4","2267","Gar nicht vertrauenswürdig","Sehr vertrauenswürdig","","Wie vertrauenswürdig ist dieses Gesicht?","images/upright/Stimulus-Upright-Black19.jpg","Upright","Black","Vertrauenswürdigkeit","Fri Jun 14 2019 18:01:29 GMT+0200 (Mitteleuropäische Sommerzeit)","1560528089680","20","weiblich","deutsch","","1560528597574","8.4649","INSERT_A_NUMBER",
"rate_face","41","5","2079","Gar nicht vertrauenswürdig","Sehr vertrauenswürdig","","Wie vertrauenswürdig ist dieses Gesicht?","images/upright/Stimulus-Upright-Black20.jpg","Upright","Black","Vertrauenswürdigkeit","Fri Jun 14 2019 18:01:29 GMT+0200 (Mitteleuropäische Sommerzeit)","1560528089680","20","weiblich","deutsch","","1560528597574","8.4649","INSERT_A_NUMBER",
"rate_face","42","6","1469","Gar nicht vertrauenswürdig","Sehr vertrauenswürdig","","Wie vertrauenswürdig ist dieses Gesicht?","images/upright/Stimulus-Upright-White36.jpg","Upright","White","Vertrauenswürdigkeit","Fri Jun 14 2019 18:01:29 GMT+0200 (Mitteleuropäische Sommerzeit)","1560528089680","20","weiblich","deutsch","","1560528597574","8.4649","INSERT_A_NUMBER",
"rate_face","43","3","1632","Gar nicht vertrauenswürdig","Sehr vertrauenswürdig","","Wie vertrauenswürdig ist dieses Gesicht?","images/upright/Stimulus-Upright-Black3.jpg","Upright","Black","Vertrauenswürdigkeit","Fri Jun 14 2019 18:01:29 GMT+0200 (Mitteleuropäische Sommerzeit)","1560528089680","20","weiblich","deutsch","","1560528597574","8.4649","INSERT_A_NUMBER",
"rate_face","44","4","6847","Gar nicht vertrauenswürdig","Sehr vertrauenswürdig","","Wie vertrauenswürdig ist dieses Gesicht?","images/upright/Stimulus-Upright-Black12.jpg","Upright","Black","Vertrauenswürdigkeit","Fri Jun 14 2019 18:01:29 GMT+0200 (Mitteleuropäische Sommerzeit)","1560528089680","20","weiblich","deutsch","","1560528597574","8.4649","INSERT_A_NUMBER",
"rate_face","45","3","1555","Gar nicht vertrauenswürdig","Sehr vertrauenswürdig","","Wie vertrauenswürdig ist dieses Gesicht?","images/upright/Stimulus-Upright-White6.jpg","Upright","White","Vertrauenswürdigkeit","Fri Jun 14 2019 18:01:29 GMT+0200 (Mitteleuropäische Sommerzeit)","1560528089680","20","weiblich","deutsch","","1560528597574","8.4649","INSERT_A_NUMBER",
"rate_face","46","4","5282","Gar nicht vertrauenswürdig","Sehr vertrauenswürdig","","Wie vertrauenswürdig ist dieses Gesicht?","images/upright/Stimulus-Upright-White8.jpg","Upright","White","Vertrauenswürdigkeit","Fri Jun 14 2019 18:01:29 GMT+0200 (Mitteleuropäische Sommerzeit)","1560528089680","20","weiblich","deutsch","","1560528597574","8.4649","INSERT_A_NUMBER",
"rate_face","47","5","6487","Gar nicht vertrauenswürdig","Sehr vertrauenswürdig","","Wie vertrauenswürdig ist dieses Gesicht?","images/upright/Stimulus-Upright-White7.jpg","Upright","White","Vertrauenswürdigkeit","Fri Jun 14 2019 18:01:29 GMT+0200 (Mitteleuropäische Sommerzeit)","1560528089680","20","weiblich","deutsch","","1560528597574","8.4649","INSERT_A_NUMBER",
"rate_face","48","5","2131","Gar nicht vertrauenswürdig","Sehr vertrauenswürdig","","Wie vertrauenswürdig ist dieses Gesicht?","images/upright/Stimulus-Upright-Black8.jpg","Upright","Black","Vertrauenswürdigkeit","Fri Jun 14 2019 18:01:29 GMT+0200 (Mitteleuropäische Sommerzeit)","1560528089680","20","weiblich","deutsch","","1560528597574","8.4649","INSERT_A_NUMBER",
"rate_face","49","3","1794","Gar nicht vertrauenswürdig","Sehr vertrauenswürdig","","Wie vertrauenswürdig ist dieses Gesicht?","images/upright/Stimulus-Upright-White10.jpg","Upright","White","Vertrauenswürdigkeit","Fri Jun 14 2019 18:01:29 GMT+0200 (Mitteleuropäische Sommerzeit)","1560528089680","20","weiblich","deutsch","","1560528597574","8.4649","INSERT_A_NUMBER",
"rate_face","50","5","8650","Gar nicht vertrauenswürdig","Sehr vertrauenswürdig","","Wie vertrauenswürdig ist dieses Gesicht?","images/upright/Stimulus-Upright-Black16.jpg","Upright","Black","Vertrauenswürdigkeit","Fri Jun 14 2019 18:01:29 GMT+0200 (Mitteleuropäische Sommerzeit)","1560528089680","20","weiblich","deutsch","","1560528597574","8.4649","INSERT_A_NUMBER",
"rate_face","51","5","2193","Gar nicht vertrauenswürdig","Sehr vertrauenswürdig","","Wie vertrauenswürdig ist dieses Gesicht?","images/upright/Stimulus-Upright-Black15.jpg","Upright","Black","Vertrauenswürdigkeit","Fri Jun 14 2019 18:01:29 GMT+0200 (Mitteleuropäische Sommerzeit)","1560528089680","20","weiblich","deutsch","","1560528597574","8.4649","INSERT_A_NUMBER",
"rate_face","52","3","2426","Gar nicht vertrauenswürdig","Sehr vertrauenswürdig","","Wie vertrauenswürdig ist dieses Gesicht?","images/upright/Stimulus-Upright-Black35.jpg","Upright","Black","Vertrauenswürdigkeit","Fri Jun 14 2019 18:01:29 GMT+0200 (Mitteleuropäische Sommerzeit)","1560528089680","20","weiblich","deutsch","","1560528597574","8.4649","INSERT_A_NUMBER",
"rate_face","53","5","4430","Gar nicht vertrauenswürdig","Sehr vertrauenswürdig","","Wie vertrauenswürdig ist dieses Gesicht?","images/upright/Stimulus-Upright-White30.jpg","Upright","White","Vertrauenswürdigkeit","Fri Jun 14 2019 18:01:29 GMT+0200 (Mitteleuropäische Sommerzeit)","1560528089680","20","weiblich","deutsch","","1560528597574","8.4649","INSERT_A_NUMBER",
"rate_face","54","4","7283","Gar nicht vertrauenswürdig","Sehr vertrauenswürdig","","Wie vertrauenswürdig ist dieses Gesicht?","images/upright/Stimulus-Upright-Black18.jpg","Upright","Black","Vertrauenswürdigkeit","Fri Jun 14 2019 18:01:29 GMT+0200 (Mitteleuropäische Sommerzeit)","1560528089680","20","weiblich","deutsch","","1560528597574","8.4649","INSERT_A_NUMBER",
"rate_face","55","6","1759","Gar nicht vertrauenswürdig","Sehr vertrauenswürdig","","Wie vertrauenswürdig ist dieses Gesicht?","images/upright/Stimulus-Upright-Black23.jpg","Upright","Black","Vertrauenswürdigkeit","Fri Jun 14 2019 18:01:29 GMT+0200 (Mitteleuropäische Sommerzeit)","1560528089680","20","weiblich","deutsch","","1560528597574","8.4649","INSERT_A_NUMBER",
"rate_face","56","3","1727","Gar nicht vertrauenswürdig","Sehr vertrauenswürdig","","Wie vertrauenswürdig ist dieses Gesicht?","images/upright/Stimulus-Upright-White11.jpg","Upright","White","Vertrauenswürdigkeit","Fri Jun 14 2019 18:01:29 GMT+0200 (Mitteleuropäische Sommerzeit)","1560528089680","20","weiblich","deutsch","","1560528597574","8.4649","INSERT_A_NUMBER",
"rate_face","57","5","2723","Gar nicht vertrauenswürdig","Sehr vertrauenswürdig","","Wie vertrauenswürdig ist dieses Gesicht?","images/upright/Stimulus-Upright-White15.jpg","Upright","White","Vertrauenswürdigkeit","Fri Jun 14 2019 18:01:29 GMT+0200 (Mitteleuropäische Sommerzeit)","1560528089680","20","weiblich","deutsch","","1560528597574","8.4649","INSERT_A_NUMBER",
"rate_face","58","4","2784","Gar nicht vertrauenswürdig","Sehr vertrauenswürdig","","Wie vertrauenswürdig ist dieses Gesicht?","images/upright/Stimulus-Upright-Black33.jpg","Upright","Black","Vertrauenswürdigkeit","Fri Jun 14 2019 18:01:29 GMT+0200 (Mitteleuropäische Sommerzeit)","1560528089680","20","weiblich","deutsch","","1560528597574","8.4649","INSERT_A_NUMBER",
"rate_face","59","3","1835","Gar nicht vertrauenswürdig","Sehr vertrauenswürdig","","Wie vertrauenswürdig ist dieses Gesicht?","images/upright/Stimulus-Upright-White22.jpg","Upright","White","Vertrauenswürdigkeit","Fri Jun 14 2019 18:01:29 GMT+0200 (Mitteleuropäische Sommerzeit)","1560528089680","20","weiblich","deutsch","","1560528597574","8.4649","INSERT_A_NUMBER",
"rate_face","60","4","3274","Gar nicht vertrauenswürdig","Sehr vertrauenswürdig","","Wie vertrauenswürdig ist dieses Gesicht?","images/upright/Stimulus-Upright-White17.jpg","Upright","White","Vertrauenswürdigkeit","Fri Jun 14 2019 18:01:29 GMT+0200 (Mitteleuropäische Sommerzeit)","1560528089680","20","weiblich","deutsch","","1560528597574","8.4649","INSERT_A_NUMBER",
"rate_face","61","3","2030","Gar nicht vertrauenswürdig","Sehr vertrauenswürdig","","Wie vertrauenswürdig ist dieses Gesicht?","images/upright/Stimulus-Upright-White3.jpg","Upright","White","Vertrauenswürdigkeit","Fri Jun 14 2019 18:01:29 GMT+0200 (Mitteleuropäische Sommerzeit)","1560528089680","20","weiblich","deutsch","","1560528597574","8.4649","INSERT_A_NUMBER",
"rate_face","62","3","1774","Gar nicht vertrauenswürdig","Sehr vertrauenswürdig","","Wie vertrauenswürdig ist dieses Gesicht?","images/upright/Stimulus-Upright-White34.jpg","Upright","White","Vertrauenswürdigkeit","Fri Jun 14 2019 18:01:29 GMT+0200 (Mitteleuropäische Sommerzeit)","1560528089680","20","weiblich","deutsch","","1560528597574","8.4649","INSERT_A_NUMBER",
"rate_face","63","3","1938","Gar nicht vertrauenswürdig","Sehr vertrauenswürdig","","Wie vertrauenswürdig ist dieses Gesicht?","images/upright/Stimulus-Upright-Black1.jpg","Upright","Black","Vertrauenswürdigkeit","Fri Jun 14 2019 18:01:29 GMT+0200 (Mitteleuropäische Sommerzeit)","1560528089680","20","weiblich","deutsch","","1560528597574","8.4649","INSERT_A_NUMBER",
"rate_face","64","5","2282","Gar nicht vertrauenswürdig","Sehr vertrauenswürdig","","Wie vertrauenswürdig ist dieses Gesicht?","images/upright/Stimulus-Upright-Black27.jpg","Upright","Black","Vertrauenswürdigkeit","Fri Jun 14 2019 18:01:29 GMT+0200 (Mitteleuropäische Sommerzeit)","1560528089680","20","weiblich","deutsch","","1560528597574","8.4649","INSERT_A_NUMBER",
"rate_face","65","3","2010","Gar nicht vertrauenswürdig","Sehr vertrauenswürdig","","Wie vertrauenswürdig ist dieses Gesicht?","images/upright/Stimulus-Upright-White12.jpg","Upright","White","Vertrauenswürdigkeit","Fri Jun 14 2019 18:01:29 GMT+0200 (Mitteleuropäische Sommerzeit)","1560528089680","20","weiblich","deutsch","","1560528597574","8.4649","INSERT_A_NUMBER",
"rate_face","66","3","1759","Gar nicht vertrauenswürdig","Sehr vertrauenswürdig","","Wie vertrauenswürdig ist dieses Gesicht?","images/upright/Stimulus-Upright-White14.jpg","Upright","White","Vertrauenswürdigkeit","Fri Jun 14 2019 18:01:29 GMT+0200 (Mitteleuropäische Sommerzeit)","1560528089680","20","weiblich","deutsch","","1560528597574","8.4649","INSERT_A_NUMBER",
"rate_face","67","4","2451","Gar nicht vertrauenswürdig","Sehr vertrauenswürdig","","Wie vertrauenswürdig ist dieses Gesicht?","images/upright/Stimulus-Upright-Black31.jpg","Upright","Black","Vertrauenswürdigkeit","Fri Jun 14 2019 18:01:29 GMT+0200 (Mitteleuropäische Sommerzeit)","1560528089680","20","weiblich","deutsch","","1560528597574","8.4649","INSERT_A_NUMBER",
"rate_face","68","3","9080","Gar nicht vertrauenswürdig","Sehr vertrauenswürdig","","Wie vertrauenswürdig ist dieses Gesicht?","images/upright/Stimulus-Upright-White1.jpg","Upright","White","Vertrauenswürdigkeit","Fri Jun 14 2019 18:01:29 GMT+0200 (Mitteleuropäische Sommerzeit)","1560528089680","20","weiblich","deutsch","","1560528597574","8.4649","INSERT_A_NUMBER",
"rate_face","69","6","2393","Gar nicht vertrauenswürdig","Sehr vertrauenswürdig","","Wie vertrauenswürdig ist dieses Gesicht?","images/upright/Stimulus-Upright-Black32.jpg","Upright","Black","Vertrauenswürdigkeit","Fri Jun 14 2019 18:01:29 GMT+0200 (Mitteleuropäische Sommerzeit)","1560528089680","20","weiblich","deutsch","","1560528597574","8.4649","INSERT_A_NUMBER",
"rate_face","70","3","1773","Gar nicht vertrauenswürdig","Sehr vertrauenswürdig","","Wie vertrauenswürdig ist dieses Gesicht?","images/upright/Stimulus-Upright-White20.jpg","Upright","White","Vertrauenswürdigkeit","Fri Jun 14 2019 18:01:29 GMT+0200 (Mitteleuropäische Sommerzeit)","1560528089680","20","weiblich","deutsch","","1560528597574","8.4649","INSERT_A_NUMBER",
"rate_face","71","4","2266","Gar nicht vertrauenswürdig","Sehr vertrauenswürdig","","Wie vertrauenswürdig ist dieses Gesicht?","images/upright/Stimulus-Upright-White5.jpg","Upright","White","Vertrauenswürdigkeit","Fri Jun 14 2019 18:01:29 GMT+0200 (Mitteleuropäische Sommerzeit)","1560528089680","20","weiblich","deutsch","","1560528597574","8.4649","INSERT_A_NUMBER",
"rate_face","72","6","2375","Gar nicht vertrauenswürdig","Sehr vertrauenswürdig","","Wie vertrauenswürdig ist dieses Gesicht?","images/upright/Stimulus-Upright-Black22.jpg","Upright","Black","Vertrauenswürdigkeit","Fri Jun 14 2019 18:01:29 GMT+0200 (Mitteleuropäische Sommerzeit)","1560528089680","20","weiblich","deutsch","","1560528597574","8.4649","INSERT_A_NUMBER",
"rate_face","73","3","5765","Gar nicht vertrauenswürdig","Sehr vertrauenswürdig","","Wie vertrauenswürdig ist dieses Gesicht?","images/inverted/Stimulus-Inverted-White17.jpg","Inverted","White","Vertrauenswürdigkeit","Fri Jun 14 2019 18:01:29 GMT+0200 (Mitteleuropäische Sommerzeit)","1560528089680","20","weiblich","deutsch","","1560528597574","8.4649","INSERT_A_NUMBER",
"rate_face","74","4","3599","Gar nicht vertrauenswürdig","Sehr vertrauenswürdig","","Wie vertrauenswürdig ist dieses Gesicht?","images/inverted/Stimulus-Inverted-White21.jpg","Inverted","White","Vertrauenswürdigkeit","Fri Jun 14 2019 18:01:29 GMT+0200 (Mitteleuropäische Sommerzeit)","1560528089680","20","weiblich","deutsch","","1560528597574","8.4649","INSERT_A_NUMBER",
"rate_face","75","2","4710","Gar nicht vertrauenswürdig","Sehr vertrauenswürdig","","Wie vertrauenswürdig ist dieses Gesicht?","images/inverted/Stimulus-Inverted-White16.jpg","Inverted","White","Vertrauenswürdigkeit","Fri Jun 14 2019 18:01:29 GMT+0200 (Mitteleuropäische Sommerzeit)","1560528089680","20","weiblich","deutsch","","1560528597574","8.4649","INSERT_A_NUMBER",
"rate_face","76","3","1946","Gar nicht vertrauenswürdig","Sehr vertrauenswürdig","","Wie vertrauenswürdig ist dieses Gesicht?","images/inverted/Stimulus-Inverted-Black25.jpg","Inverted","Black","Vertrauenswürdigkeit","Fri Jun 14 2019 18:01:29 GMT+0200 (Mitteleuropäische Sommerzeit)","1560528089680","20","weiblich","deutsch","","1560528597574","8.4649","INSERT_A_NUMBER",
"rate_face","77","2","1922","Gar nicht vertrauenswürdig","Sehr vertrauenswürdig","","Wie vertrauenswürdig ist dieses Gesicht?","images/inverted/Stimulus-Inverted-White25.jpg","Inverted","White","Vertrauenswürdigkeit","Fri Jun 14 2019 18:01:29 GMT+0200 (Mitteleuropäische Sommerzeit)","1560528089680","20","weiblich","deutsch","","1560528597574","8.4649","INSERT_A_NUMBER",
"rate_face","78","1","2053","Gar nicht vertrauenswürdig","Sehr vertrauenswürdig","","Wie vertrauenswürdig ist dieses Gesicht?","images/inverted/Stimulus-Inverted-White18.jpg","Inverted","White","Vertrauenswürdigkeit","Fri Jun 14 2019 18:01:29 GMT+0200 (Mitteleuropäische Sommerzeit)","1560528089680","20","weiblich","deutsch","","1560528597574","8.4649","INSERT_A_NUMBER",
"rate_face","79","1","3969","Gar nicht vertrauenswürdig","Sehr vertrauenswürdig","","Wie vertrauenswürdig ist dieses Gesicht?","images/inverted/Stimulus-Inverted-White2.jpg","Inverted","White","Vertrauenswürdigkeit","Fri Jun 14 2019 18:01:29 GMT+0200 (Mitteleuropäische Sommerzeit)","1560528089680","20","weiblich","deutsch","","1560528597574","8.4649","INSERT_A_NUMBER",
"rate_face","80","2","2176","Gar nicht vertrauenswürdig","Sehr vertrauenswürdig","","Wie vertrauenswürdig ist dieses Gesicht?","images/inverted/Stimulus-Inverted-Black5.jpg","Inverted","Black","Vertrauenswürdigkeit","Fri Jun 14 2019 18:01:29 GMT+0200 (Mitteleuropäische Sommerzeit)","1560528089680","20","weiblich","deutsch","","1560528597574","8.4649","INSERT_A_NUMBER",
"rate_face","81","3","4270","Gar nicht vertrauenswürdig","Sehr vertrauenswürdig","","Wie vertrauenswürdig ist dieses Gesicht?","images/inverted/Stimulus-Inverted-Black18.jpg","Inverted","Black","Vertrauenswürdigkeit","Fri Jun 14 2019 18:01:29 GMT+0200 (Mitteleuropäische Sommerzeit)","1560528089680","20","weiblich","deutsch","","1560528597574","8.4649","INSERT_A_NUMBER",
"rate_face","82","3","3529","Gar nicht vertrauenswürdig","Sehr vertrauenswürdig","","Wie vertrauenswürdig ist dieses Gesicht?","images/inverted/Stimulus-Inverted-Black9.jpg","Inverted","Black","Vertrauenswürdigkeit","Fri Jun 14 2019 18:01:29 GMT+0200 (Mitteleuropäische Sommerzeit)","1560528089680","20","weiblich","deutsch","","1560528597574","8.4649","INSERT_A_NUMBER",
"rate_face","83","2","1937","Gar nicht vertrauenswürdig","Sehr vertrauenswürdig","","Wie vertrauenswürdig ist dieses Gesicht?","images/inverted/Stimulus-Inverted-Black34.jpg","Inverted","Black","Vertrauenswürdigkeit","Fri Jun 14 2019 18:01:29 GMT+0200 (Mitteleuropäische Sommerzeit)","1560528089680","20","weiblich","deutsch","","1560528597574","8.4649","INSERT_A_NUMBER",
"rate_face","84","3","3103","Gar nicht vertrauenswürdig","Sehr vertrauenswürdig","","Wie vertrauenswürdig ist dieses Gesicht?","images/inverted/Stimulus-Inverted-Black7.jpg","Inverted","Black","Vertrauenswürdigkeit","Fri Jun 14 2019 18:01:29 GMT+0200 (Mitteleuropäische Sommerzeit)","1560528089680","20","weiblich","deutsch","","1560528597574","8.4649","INSERT_A_NUMBER",
"rate_face","85","4","4557","Gar nicht vertrauenswürdig","Sehr vertrauenswürdig","","Wie vertrauenswürdig ist dieses Gesicht?","images/inverted/Stimulus-Inverted-Black1.jpg","Inverted","Black","Vertrauenswürdigkeit","Fri Jun 14 2019 18:01:29 GMT+0200 (Mitteleuropäische Sommerzeit)","1560528089680","20","weiblich","deutsch","","1560528597574","8.4649","INSERT_A_NUMBER",
"rate_face","86","3","2762","Gar nicht vertrauenswürdig","Sehr vertrauenswürdig","","Wie vertrauenswürdig ist dieses Gesicht?","images/inverted/Stimulus-Inverted-White28.jpg","Inverted","White","Vertrauenswürdigkeit","Fri Jun 14 2019 18:01:29 GMT+0200 (Mitteleuropäische Sommerzeit)","1560528089680","20","weiblich","deutsch","","1560528597574","8.4649","INSERT_A_NUMBER",
"rate_face","87","1","4446","Gar nicht vertrauenswürdig","Sehr vertrauenswürdig","","Wie vertrauenswürdig ist dieses Gesicht?","images/inverted/Stimulus-Inverted-Black11.jpg","Inverted","Black","Vertrauenswürdigkeit","Fri Jun 14 2019 18:01:29 GMT+0200 (Mitteleuropäische Sommerzeit)","1560528089680","20","weiblich","deutsch","","1560528597574","8.4649","INSERT_A_NUMBER",
"rate_face","88","2","1940","Gar nicht vertrauenswürdig","Sehr vertrauenswürdig","","Wie vertrauenswürdig ist dieses Gesicht?","images/inverted/Stimulus-Inverted-Black10.jpg","Inverted","Black","Vertrauenswürdigkeit","Fri Jun 14 2019 18:01:29 GMT+0200 (Mitteleuropäische Sommerzeit)","1560528089680","20","weiblich","deutsch","","1560528597574","8.4649","INSERT_A_NUMBER",
"rate_face","89","1","2321","Gar nicht vertrauenswürdig","Sehr vertrauenswürdig","","Wie vertrauenswürdig ist dieses Gesicht?","images/inverted/Stimulus-Inverted-White8.jpg","Inverted","White","Vertrauenswürdigkeit","Fri Jun 14 2019 18:01:29 GMT+0200 (Mitteleuropäische Sommerzeit)","1560528089680","20","weiblich","deutsch","","1560528597574","8.4649","INSERT_A_NUMBER",
"rate_face","90","1","2480","Gar nicht vertrauenswürdig","Sehr vertrauenswürdig","","Wie vertrauenswürdig ist dieses Gesicht?","images/inverted/Stimulus-Inverted-White26.jpg","Inverted","White","Vertrauenswürdigkeit","Fri Jun 14 2019 18:01:29 GMT+0200 (Mitteleuropäische Sommerzeit)","1560528089680","20","weiblich","deutsch","","1560528597574","8.4649","INSERT_A_NUMBER",
"rate_face","91","4","6466","Gar nicht vertrauenswürdig","Sehr vertrauenswürdig","","Wie vertrauenswürdig ist dieses Gesicht?","images/inverted/Stimulus-Inverted-Black32.jpg","Inverted","Black","Vertrauenswürdigkeit","Fri Jun 14 2019 18:01:29 GMT+0200 (Mitteleuropäische Sommerzeit)","1560528089680","20","weiblich","deutsch","","1560528597574","8.4649","INSERT_A_NUMBER",
"rate_face","92","4","1526","Gar nicht vertrauenswürdig","Sehr vertrauenswürdig","","Wie vertrauenswürdig ist dieses Gesicht?","images/inverted/Stimulus-Inverted-Black26.jpg","Inverted","Black","Vertrauenswürdigkeit","Fri Jun 14 2019 18:01:29 GMT+0200 (Mitteleuropäische Sommerzeit)","1560528089680","20","weiblich","deutsch","","1560528597574","8.4649","INSERT_A_NUMBER",
"rate_face","93","4","2366","Gar nicht vertrauenswürdig","Sehr vertrauenswürdig","","Wie vertrauenswürdig ist dieses Gesicht?","images/inverted/Stimulus-Inverted-Black36.jpg","Inverted","Black","Vertrauenswürdigkeit","Fri Jun 14 2019 18:01:29 GMT+0200 (Mitteleuropäische Sommerzeit)","1560528089680","20","weiblich","deutsch","","1560528597574","8.4649","INSERT_A_NUMBER",
"rate_face","94","3","1744","Gar nicht vertrauenswürdig","Sehr vertrauenswürdig","","Wie vertrauenswürdig ist dieses Gesicht?","images/inverted/Stimulus-Inverted-White23.jpg","Inverted","White","Vertrauenswürdigkeit","Fri Jun 14 2019 18:01:29 GMT+0200 (Mitteleuropäische Sommerzeit)","1560528089680","20","weiblich","deutsch","","1560528597574","8.4649","INSERT_A_NUMBER",
"rate_face","95","1","4498","Gar nicht vertrauenswürdig","Sehr vertrauenswürdig","","Wie vertrauenswürdig ist dieses Gesicht?","images/inverted/Stimulus-Inverted-Black8.jpg","Inverted","Black","Vertrauenswürdigkeit","Fri Jun 14 2019 18:01:29 GMT+0200 (Mitteleuropäische Sommerzeit)","1560528089680","20","weiblich","deutsch","","1560528597574","8.4649","INSERT_A_NUMBER",
"rate_face","96","3","2842","Gar nicht vertrauenswürdig","Sehr vertrauenswürdig","","Wie vertrauenswürdig ist dieses Gesicht?","images/inverted/Stimulus-Inverted-Black16.jpg","Inverted","Black","Vertrauenswürdigkeit","Fri Jun 14 2019 18:01:29 GMT+0200 (Mitteleuropäische Sommerzeit)","1560528089680","20","weiblich","deutsch","","1560528597574","8.4649","INSERT_A_NUMBER",
"rate_face","97","4","2498","Gar nicht vertrauenswürdig","Sehr vertrauenswürdig","","Wie vertrauenswürdig ist dieses Gesicht?","images/inverted/Stimulus-Inverted-Black30.jpg","Inverted","Black","Vertrauenswürdigkeit","Fri Jun 14 2019 18:01:29 GMT+0200 (Mitteleuropäische Sommerzeit)","1560528089680","20","weiblich","deutsch","","1560528597574","8.4649","INSERT_A_NUMBER",
"rate_face","98","2","5130","Gar nicht vertrauenswürdig","Sehr vertrauenswürdig","","Wie vertrauenswürdig ist dieses Gesicht?","images/inverted/Stimulus-Inverted-White1.jpg","Inverted","White","Vertrauenswürdigkeit","Fri Jun 14 2019 18:01:29 GMT+0200 (Mitteleuropäische Sommerzeit)","1560528089680","20","weiblich","deutsch","","1560528597574","8.4649","INSERT_A_NUMBER",
"rate_face","99","3","2907","Gar nicht vertrauenswürdig","Sehr vertrauenswürdig","","Wie vertrauenswürdig ist dieses Gesicht?","images/inverted/Stimulus-Inverted-Black15.jpg","Inverted","Black","Vertrauenswürdigkeit","Fri Jun 14 2019 18:01:29 GMT+0200 (Mitteleuropäische Sommerzeit)","1560528089680","20","weiblich","deutsch","","1560528597574","8.4649","INSERT_A_NUMBER",
"rate_face","100","1","1762","Gar nicht vertrauenswürdig","Sehr vertrauenswürdig","","Wie vertrauenswürdig ist dieses Gesicht?","images/inverted/Stimulus-Inverted-White10.jpg","Inverted","White","Vertrauenswürdigkeit","Fri Jun 14 2019 18:01:29 GMT+0200 (Mitteleuropäische Sommerzeit)","1560528089680","20","weiblich","deutsch","","1560528597574","8.4649","INSERT_A_NUMBER",
"rate_face","101","1","1040","Gar nicht vertrauenswürdig","Sehr vertrauenswürdig","","Wie vertrauenswürdig ist dieses Gesicht?","images/inverted/Stimulus-Inverted-White32.jpg","Inverted","White","Vertrauenswürdigkeit","Fri Jun 14 2019 18:01:29 GMT+0200 (Mitteleuropäische Sommerzeit)","1560528089680","20","weiblich","deutsch","","1560528597574","8.4649","INSERT_A_NUMBER",
"rate_face","102","1","1213","Gar nicht vertrauenswürdig","Sehr vertrauenswürdig","","Wie vertrauenswürdig ist dieses Gesicht?","images/inverted/Stimulus-Inverted-Black31.jpg","Inverted","Black","Vertrauenswürdigkeit","Fri Jun 14 2019 18:01:29 GMT+0200 (Mitteleuropäische Sommerzeit)","1560528089680","20","weiblich","deutsch","","1560528597574","8.4649","INSERT_A_NUMBER",
"rate_face","103","1","1876","Gar nicht vertrauenswürdig","Sehr vertrauenswürdig","","Wie vertrauenswürdig ist dieses Gesicht?","images/inverted/Stimulus-Inverted-Black35.jpg","Inverted","Black","Vertrauenswürdigkeit","Fri Jun 14 2019 18:01:29 GMT+0200 (Mitteleuropäische Sommerzeit)","1560528089680","20","weiblich","deutsch","","1560528597574","8.4649","INSERT_A_NUMBER",
"rate_face","104","1","1377","Gar nicht vertrauenswürdig","Sehr vertrauenswürdig","","Wie vertrauenswürdig ist dieses Gesicht?","images/inverted/Stimulus-Inverted-White9.jpg","Inverted","White","Vertrauenswürdigkeit","Fri Jun 14 2019 18:01:29 GMT+0200 (Mitteleuropäische Sommerzeit)","1560528089680","20","weiblich","deutsch","","1560528597574","8.4649","INSERT_A_NUMBER",
"rate_face","105","1","1365","Gar nicht vertrauenswürdig","Sehr vertrauenswürdig","","Wie vertrauenswürdig ist dieses Gesicht?","images/inverted/Stimulus-Inverted-White14.jpg","Inverted","White","Vertrauenswürdigkeit","Fri Jun 14 2019 18:01:29 GMT+0200 (Mitteleuropäische Sommerzeit)","1560528089680","20","weiblich","deutsch","","1560528597574","8.4649","INSERT_A_NUMBER",
"rate_face","106","2","4141","Gar nicht vertrauenswürdig","Sehr vertrauenswürdig","","Wie vertrauenswürdig ist dieses Gesicht?","images/inverted/Stimulus-Inverted-Black12.jpg","Inverted","Black","Vertrauenswürdigkeit","Fri Jun 14 2019 18:01:29 GMT+0200 (Mitteleuropäische Sommerzeit)","1560528089680","20","weiblich","deutsch","","1560528597574","8.4649","INSERT_A_NUMBER",
"rate_face","107","2","1764","Gar nicht vertrauenswürdig","Sehr vertrauenswürdig","","Wie vertrauenswürdig ist dieses Gesicht?","images/inverted/Stimulus-Inverted-Black29.jpg","Inverted","Black","Vertrauenswürdigkeit","Fri Jun 14 2019 18:01:29 GMT+0200 (Mitteleuropäische Sommerzeit)","1560528089680","20","weiblich","deutsch","","1560528597574","8.4649","INSERT_A_NUMBER",
"rate_face","108","4","2356","Gar nicht vertrauenswürdig","Sehr vertrauenswürdig","","Wie vertrauenswürdig ist dieses Gesicht?","images/inverted/Stimulus-Inverted-Black17.jpg","Inverted","Black","Vertrauenswürdigkeit","Fri Jun 14 2019 18:01:29 GMT+0200 (Mitteleuropäische Sommerzeit)","1560528089680","20","weiblich","deutsch","","1560528597574","8.4649","INSERT_A_NUMBER",
"rate_face","109","2","3397","Gar nicht vertrauenswürdig","Sehr vertrauenswürdig","","Wie vertrauenswürdig ist dieses Gesicht?","images/inverted/Stimulus-Inverted-White24.jpg","Inverted","White","Vertrauenswürdigkeit","Fri Jun 14 2019 18:01:29 GMT+0200 (Mitteleuropäische Sommerzeit)","1560528089680","20","weiblich","deutsch","","1560528597574","8.4649","INSERT_A_NUMBER",
"rate_face","110","3","3169","Gar nicht vertrauenswürdig","Sehr vertrauenswürdig","","Wie vertrauenswürdig ist dieses Gesicht?","images/inverted/Stimulus-Inverted-White6.jpg","Inverted","White","Vertrauenswürdigkeit","Fri Jun 14 2019 18:01:29 GMT+0200 (Mitteleuropäische Sommerzeit)","1560528089680","20","weiblich","deutsch","","1560528597574","8.4649","INSERT_A_NUMBER",
"rate_face","111","2","3623","Gar nicht vertrauenswürdig","Sehr vertrauenswürdig","","Wie vertrauenswürdig ist dieses Gesicht?","images/inverted/Stimulus-Inverted-White31.jpg","Inverted","White","Vertrauenswürdigkeit","Fri Jun 14 2019 18:01:29 GMT+0200 (Mitteleuropäische Sommerzeit)","1560528089680","20","weiblich","deutsch","","1560528597574","8.4649","INSERT_A_NUMBER",
"rate_face","112","3","2338","Gar nicht vertrauenswürdig","Sehr vertrauenswürdig","","Wie vertrauenswürdig ist dieses Gesicht?","images/inverted/Stimulus-Inverted-White35.jpg","Inverted","White","Vertrauenswürdigkeit","Fri Jun 14 2019 18:01:29 GMT+0200 (Mitteleuropäische Sommerzeit)","1560528089680","20","weiblich","deutsch","","1560528597574","8.4649","INSERT_A_NUMBER",
"rate_face","113","2","3741","Gar nicht vertrauenswürdig","Sehr vertrauenswürdig","","Wie vertrauenswürdig ist dieses Gesicht?","images/inverted/Stimulus-Inverted-White27.jpg","Inverted","White","Vertrauenswürdigkeit","Fri Jun 14 2019 18:01:29 GMT+0200 (Mitteleuropäische Sommerzeit)","1560528089680","20","weiblich","deutsch","","1560528597574","8.4649","INSERT_A_NUMBER",
"rate_face","114","3","6864","Gar nicht vertrauenswürdig","Sehr vertrauenswürdig","","Wie vertrauenswürdig ist dieses Gesicht?","images/inverted/Stimulus-Inverted-White15.jpg","Inverted","White","Vertrauenswürdigkeit","Fri Jun 14 2019 18:01:29 GMT+0200 (Mitteleuropäische Sommerzeit)","1560528089680","20","weiblich","deutsch","","1560528597574","8.4649","INSERT_A_NUMBER",
"rate_face","115","3","1937","Gar nicht vertrauenswürdig","Sehr vertrauenswürdig","","Wie vertrauenswürdig ist dieses Gesicht?","images/inverted/Stimulus-Inverted-White3.jpg","Inverted","White","Vertrauenswürdigkeit","Fri Jun 14 2019 18:01:29 GMT+0200 (Mitteleuropäische Sommerzeit)","1560528089680","20","weiblich","deutsch","","1560528597574","8.4649","INSERT_A_NUMBER",
"rate_face","116","2","2285","Gar nicht vertrauenswürdig","Sehr vertrauenswürdig","","Wie vertrauenswürdig ist dieses Gesicht?","images/inverted/Stimulus-Inverted-White36.jpg","Inverted","White","Vertrauenswürdigkeit","Fri Jun 14 2019 18:01:29 GMT+0200 (Mitteleuropäische Sommerzeit)","1560528089680","20","weiblich","deutsch","","1560528597574","8.4649","INSERT_A_NUMBER",
"rate_face","117","2","1393","Gar nicht vertrauenswürdig","Sehr vertrauenswürdig","","Wie vertrauenswürdig ist dieses Gesicht?","images/inverted/Stimulus-Inverted-White34.jpg","Inverted","White","Vertrauenswürdigkeit","Fri Jun 14 2019 18:01:29 GMT+0200 (Mitteleuropäische Sommerzeit)","1560528089680","20","weiblich","deutsch","","1560528597574","8.4649","INSERT_A_NUMBER",
"rate_face","118","2","2328","Gar nicht vertrauenswürdig","Sehr vertrauenswürdig","","Wie vertrauenswürdig ist dieses Gesicht?","images/inverted/Stimulus-Inverted-Black24.jpg","Inverted","Black","Vertrauenswürdigkeit","Fri Jun 14 2019 18:01:29 GMT+0200 (Mitteleuropäische Sommerzeit)","1560528089680","20","weiblich","deutsch","","1560528597574","8.4649","INSERT_A_NUMBER",
"rate_face","119","2","2079","Gar nicht vertrauenswürdig","Sehr vertrauenswürdig","","Wie vertrauenswürdig ist dieses Gesicht?","images/inverted/Stimulus-Inverted-Black3.jpg","Inverted","Black","Vertrauenswürdigkeit","Fri Jun 14 2019 18:01:29 GMT+0200 (Mitteleuropäische Sommerzeit)","1560528089680","20","weiblich","deutsch","","1560528597574","8.4649","INSERT_A_NUMBER",
"rate_face","120","2","1600","Gar nicht vertrauenswürdig","Sehr vertrauenswürdig","","Wie vertrauenswürdig ist dieses Gesicht?","images/inverted/Stimulus-Inverted-Black2.jpg","Inverted","Black","Vertrauenswürdigkeit","Fri Jun 14 2019 18:01:29 GMT+0200 (Mitteleuropäische Sommerzeit)","1560528089680","20","weiblich","deutsch","","1560528597574","8.4649","INSERT_A_NUMBER",
"rate_face","121","2","2035","Gar nicht vertrauenswürdig","Sehr vertrauenswürdig","","Wie vertrauenswürdig ist dieses Gesicht?","images/inverted/Stimulus-Inverted-Black20.jpg","Inverted","Black","Vertrauenswürdigkeit","Fri Jun 14 2019 18:01:29 GMT+0200 (Mitteleuropäische Sommerzeit)","1560528089680","20","weiblich","deutsch","","1560528597574","8.4649","INSERT_A_NUMBER",
"rate_face","122","1","1767","Gar nicht vertrauenswürdig","Sehr vertrauenswürdig","","Wie vertrauenswürdig ist dieses Gesicht?","images/inverted/Stimulus-Inverted-White7.jpg","Inverted","White","Vertrauenswürdigkeit","Fri Jun 14 2019 18:01:29 GMT+0200 (Mitteleuropäische Sommerzeit)","1560528089680","20","weiblich","deutsch","","1560528597574","8.4649","INSERT_A_NUMBER",
"rate_face","123","3","9427","Gar nicht vertrauenswürdig","Sehr vertrauenswürdig","","Wie vertrauenswürdig ist dieses Gesicht?","images/inverted/Stimulus-Inverted-Black33.jpg","Inverted","Black","Vertrauenswürdigkeit","Fri Jun 14 2019 18:01:29 GMT+0200 (Mitteleuropäische Sommerzeit)","1560528089680","20","weiblich","deutsch","","1560528597574","8.4649","INSERT_A_NUMBER",
"rate_face","124","3","1254","Gar nicht vertrauenswürdig","Sehr vertrauenswürdig","","Wie vertrauenswürdig ist dieses Gesicht?","images/inverted/Stimulus-Inverted-Black23.jpg","Inverted","Black","Vertrauenswürdigkeit","Fri Jun 14 2019 18:01:29 GMT+0200 (Mitteleuropäische Sommerzeit)","1560528089680","20","weiblich","deutsch","","1560528597574","8.4649","INSERT_A_NUMBER",
"rate_face","125","1","1833","Gar nicht vertrauenswürdig","Sehr vertrauenswürdig","","Wie vertrauenswürdig ist dieses Gesicht?","images/inverted/Stimulus-Inverted-White13.jpg","Inverted","White","Vertrauenswürdigkeit","Fri Jun 14 2019 18:01:29 GMT+0200 (Mitteleuropäische Sommerzeit)","1560528089680","20","weiblich","deutsch","","1560528597574","8.4649","INSERT_A_NUMBER",
"rate_face","126","2","2703","Gar nicht vertrauenswürdig","Sehr vertrauenswürdig","","Wie vertrauenswürdig ist dieses Gesicht?","images/inverted/Stimulus-Inverted-White30.jpg","Inverted","White","Vertrauenswürdigkeit","Fri Jun 14 2019 18:01:29 GMT+0200 (Mitteleuropäische Sommerzeit)","1560528089680","20","weiblich","deutsch","","1560528597574","8.4649","INSERT_A_NUMBER",
"rate_face","127","2","1152","Gar nicht vertrauenswürdig","Sehr vertrauenswürdig","","Wie vertrauenswürdig ist dieses Gesicht?","images/inverted/Stimulus-Inverted-White5.jpg","Inverted","White","Vertrauenswürdigkeit","Fri Jun 14 2019 18:01:29 GMT+0200 (Mitteleuropäische Sommerzeit)","1560528089680","20","weiblich","deutsch","","1560528597574","8.4649","INSERT_A_NUMBER",
"rate_face","128","3","2293","Gar nicht vertrauenswürdig","Sehr vertrauenswürdig","","Wie vertrauenswürdig ist dieses Gesicht?","images/inverted/Stimulus-Inverted-Black22.jpg","Inverted","Black","Vertrauenswürdigkeit","Fri Jun 14 2019 18:01:29 GMT+0200 (Mitteleuropäische Sommerzeit)","1560528089680","20","weiblich","deutsch","","1560528597574","8.4649","INSERT_A_NUMBER",
"rate_face","129","1","2284","Gar nicht vertrauenswürdig","Sehr vertrauenswürdig","","Wie vertrauenswürdig ist dieses Gesicht?","images/inverted/Stimulus-Inverted-Black4.jpg","Inverted","Black","Vertrauenswürdigkeit","Fri Jun 14 2019 18:01:29 GMT+0200 (Mitteleuropäische Sommerzeit)","1560528089680","20","weiblich","deutsch","","1560528597574","8.4649","INSERT_A_NUMBER",
"rate_face","130","3","3373","Gar nicht vertrauenswürdig","Sehr vertrauenswürdig","","Wie vertrauenswürdig ist dieses Gesicht?","images/inverted/Stimulus-Inverted-Black28.jpg","Inverted","Black","Vertrauenswürdigkeit","Fri Jun 14 2019 18:01:29 GMT+0200 (Mitteleuropäische Sommerzeit)","1560528089680","20","weiblich","deutsch","","1560528597574","8.4649","INSERT_A_NUMBER",
"rate_face","131","2","2081","Gar nicht vertrauenswürdig","Sehr vertrauenswürdig","","Wie vertrauenswürdig ist dieses Gesicht?","images/inverted/Stimulus-Inverted-White22.jpg","Inverted","White","Vertrauenswürdigkeit","Fri Jun 14 2019 18:01:29 GMT+0200 (Mitteleuropäische Sommerzeit)","1560528089680","20","weiblich","deutsch","","1560528597574","8.4649","INSERT_A_NUMBER",
"rate_face","132","1","4072","Gar nicht vertrauenswürdig","Sehr vertrauenswürdig","","Wie vertrauenswürdig ist dieses Gesicht?","images/inverted/Stimulus-Inverted-Black6.jpg","Inverted","Black","Vertrauenswürdigkeit","Fri Jun 14 2019 18:01:29 GMT+0200 (Mitteleuropäische Sommerzeit)","1560528089680","20","weiblich","deutsch","","1560528597574","8.4649","INSERT_A_NUMBER",
"rate_face","133","2","2393","Gar nicht vertrauenswürdig","Sehr vertrauenswürdig","","Wie vertrauenswürdig ist dieses Gesicht?","images/inverted/Stimulus-Inverted-White11.jpg","Inverted","White","Vertrauenswürdigkeit","Fri Jun 14 2019 18:01:29 GMT+0200 (Mitteleuropäische Sommerzeit)","1560528089680","20","weiblich","deutsch","","1560528597574","8.4649","INSERT_A_NUMBER",
"rate_face","134","3","6679","Gar nicht vertrauenswürdig","Sehr vertrauenswürdig","","Wie vertrauenswürdig ist dieses Gesicht?","images/inverted/Stimulus-Inverted-White19.jpg","Inverted","White","Vertrauenswürdigkeit","Fri Jun 14 2019 18:01:29 GMT+0200 (Mitteleuropäische Sommerzeit)","1560528089680","20","weiblich","deutsch","","1560528597574","8.4649","INSERT_A_NUMBER",
"rate_face","135","3","1693","Gar nicht vertrauenswürdig","Sehr vertrauenswürdig","","Wie vertrauenswürdig ist dieses Gesicht?","images/inverted/Stimulus-Inverted-Black19.jpg","Inverted","Black","Vertrauenswürdigkeit","Fri Jun 14 2019 18:01:29 GMT+0200 (Mitteleuropäische Sommerzeit)","1560528089680","20","weiblich","deutsch","","1560528597574","8.4649","INSERT_A_NUMBER",
"rate_face","136","3","2917","Gar nicht vertrauenswürdig","Sehr vertrauenswürdig","","Wie vertrauenswürdig ist dieses Gesicht?","images/inverted/Stimulus-Inverted-Black21.jpg","Inverted","Black","Vertrauenswürdigkeit","Fri Jun 14 2019 18:01:29 GMT+0200 (Mitteleuropäische Sommerzeit)","1560528089680","20","weiblich","deutsch","","1560528597574","8.4649","INSERT_A_NUMBER",
"rate_face","137","4","4375","Gar nicht vertrauenswürdig","Sehr vertrauenswürdig","","Wie vertrauenswürdig ist dieses Gesicht?","images/inverted/Stimulus-Inverted-White20.jpg","Inverted","White","Vertrauenswürdigkeit","Fri Jun 14 2019 18:01:29 GMT+0200 (Mitteleuropäische Sommerzeit)","1560528089680","20","weiblich","deutsch","","1560528597574","8.4649","INSERT_A_NUMBER",
"rate_face","138","2","2022","Gar nicht vertrauenswürdig","Sehr vertrauenswürdig","","Wie vertrauenswürdig ist dieses Gesicht?","images/inverted/Stimulus-Inverted-White4.jpg","Inverted","White","Vertrauenswürdigkeit","Fri Jun 14 2019 18:01:29 GMT+0200 (Mitteleuropäische Sommerzeit)","1560528089680","20","weiblich","deutsch","","1560528597574","8.4649","INSERT_A_NUMBER",
"rate_face","139","4","5549","Gar nicht vertrauenswürdig","Sehr vertrauenswürdig","","Wie vertrauenswürdig ist dieses Gesicht?","images/inverted/Stimulus-Inverted-White33.jpg","Inverted","White","Vertrauenswürdigkeit","Fri Jun 14 2019 18:01:29 GMT+0200 (Mitteleuropäische Sommerzeit)","1560528089680","20","weiblich","deutsch","","1560528597574","8.4649","INSERT_A_NUMBER",
"rate_face","140","3","5620","Gar nicht vertrauenswürdig","Sehr vertrauenswürdig","","Wie vertrauenswürdig ist dieses Gesicht?","images/inverted/Stimulus-Inverted-Black14.jpg","Inverted","Black","Vertrauenswürdigkeit","Fri Jun 14 2019 18:01:29 GMT+0200 (Mitteleuropäische Sommerzeit)","1560528089680","20","weiblich","deutsch","","1560528597574","8.4649","INSERT_A_NUMBER",
"rate_face","141","4","5006","Gar nicht vertrauenswürdig","Sehr vertrauenswürdig","","Wie vertrauenswürdig ist dieses Gesicht?","images/inverted/Stimulus-Inverted-White29.jpg","Inverted","White","Vertrauenswürdigkeit","Fri Jun 14 2019 18:01:29 GMT+0200 (Mitteleuropäische Sommerzeit)","1560528089680","20","weiblich","deutsch","","1560528597574","8.4649","INSERT_A_NUMBER",
"rate_face","142","4","2656","Gar nicht vertrauenswürdig","Sehr vertrauenswürdig","","Wie vertrauenswürdig ist dieses Gesicht?","images/inverted/Stimulus-Inverted-Black27.jpg","Inverted","Black","Vertrauenswürdigkeit","Fri Jun 14 2019 18:01:29 GMT+0200 (Mitteleuropäische Sommerzeit)","1560528089680","20","weiblich","deutsch","","1560528597574","8.4649","INSERT_A_NUMBER",
"rate_face","143","4","1504","Gar nicht vertrauenswürdig","Sehr vertrauenswürdig","","Wie vertrauenswürdig ist dieses Gesicht?","images/inverted/Stimulus-Inverted-Black13.jpg","Inverted","Black","Vertrauenswürdigkeit","Fri Jun 14 2019 18:01:29 GMT+0200 (Mitteleuropäische Sommerzeit)","1560528089680","20","weiblich","deutsch","","1560528597574","8.4649","INSERT_A_NUMBER",
"rate_face","144","1","2716","Gar nicht vertrauenswürdig","Sehr vertrauenswürdig","","Wie vertrauenswürdig ist dieses Gesicht?","images/inverted/Stimulus-Inverted-White12.jpg","Inverted","White","Vertrauenswürdigkeit","Fri Jun 14 2019 18:01:29 GMT+0200 (Mitteleuropäische Sommerzeit)","1560528089680","20","weiblich","deutsch","","1560528597574","8.4649","INSERT_A_NUMBER",
